"","X","ID","DD_Trial","DD_Today","DD_Later","DD_Time","DD_Choice","DD_rt","DD_TrialStart","DD_TrialEnd"
"1",1,3,1,28.3,38.21,4,1,4.235,0.336,6.343
"2",2,3,3,21.73,23.91,5,0,1.951,16.837,20.558
"3",3,3,4,21.39,32.09,3,1,2.09,22.243,26.098
"4",4,3,5,25.06,26.31,5,0,2.053,27.382,31.203
"5",5,3,6,18.26,24.65,1,1,1.949,33.639,37.36
"6",6,3,7,30.02,34.52,5,1,3.306,39.362,44.435
"7",7,3,9,16.64,19.13,4,0,2.45,55.146,59.367
"8",8,3,10,23.31,29.14,5,1,3.361,60.452,65.574
"9",9,3,11,22.88,25.17,2,0,1.788,68.544,72.098
"10",10,3,12,11.52,12.1,6,0,0.754,73.667,76.186
"11",11,3,13,25.35,26.61,4,0,0.641,79.323,81.725
"12",12,3,14,15.85,16.64,1,0,1.779,83.177,86.731
"13",13,3,15,11.97,16.15,6,0,2.212,89.767,93.756
"14",14,3,16,27.36,30.09,6,0,1.129,95.323,98.226
"15",15,3,17,31.47,34.62,4,0,3.79,99.294,104.85
"16",16,3,18,25.37,31.71,2,1,3.01,106.786,111.558
"17",17,3,19,19.52,29.27,5,1,2.205,113.11,117.081
"18",18,3,20,26.73,30.74,3,0,2.172,119,122.937
"19",19,3,21,18.6,19.53,3,0,0.783,124.006,126.558
"20",20,3,22,13.16,16.45,6,0,1.57,128.977,132.314
"21",21,3,23,18.76,23.45,3,1,3.342,133.95,139.055
"22",22,3,24,16.67,18.34,3,0,2.784,140.54,145.096
"23",23,3,25,16.63,18.29,1,0,2.725,148.599,153.088
"24",24,3,26,19.03,28.55,6,1,3.017,154.923,159.712
"25",25,3,27,14.01,17.51,1,1,1.95,162.981,166.702
"26",26,3,28,24.11,32.55,3,1,1.115,170.457,173.343
"27",27,3,29,20.65,27.88,5,1,1.085,176.263,179.116
"28",28,3,30,28.51,42.77,1,1,1.069,180.167,183.004
"29",29,3,31,30.69,46.03,2,1,0.536,184.572,186.874
"30",30,3,32,25.74,29.6,1,1,2.278,189.094,193.149
"31",31,3,33,16.77,19.29,2,1,1.802,194.883,198.455
"32",32,3,34,24.83,28.56,6,0,1.79,200.006,203.559
"33",33,3,35,18.43,19.35,2,0,2.574,206.045,210.384
"34",34,3,36,17.32,25.99,4,1,0.853,212.286,214.905
"35",35,3,37,25.8,34.83,3,1,2.105,217.258,221.129
"36",36,3,38,10.59,11.65,5,0,0.939,222.481,225.184
"37",37,3,39,25.81,34.84,2,1,1.739,227.536,231.04
"38",38,3,40,21.01,26.27,2,1,1.215,234.644,237.63
"39",39,3,41,16.69,17.53,4,0,1.226,239.283,242.268
"40",40,3,42,23.91,27.5,5,0,0.71,245.406,247.891
"41",41,3,43,17.67,26.51,2,1,0.912,251.796,254.483
"42",42,3,44,11.45,12.59,2,0,2.749,255.734,260.255
"43",43,3,45,10.46,15.69,5,1,1.464,262.124,265.361
"44",44,3,46,28.07,29.47,2,0,0.686,268.214,270.667
"45",45,3,47,22.62,23.75,6,0,1.237,272.135,275.138
"46",46,3,48,13.01,13.66,1,0,1.496,277.524,280.795
"47",47,3,49,24.16,36.24,6,1,0.968,282.38,285.117
"48",48,3,51,22.73,28.42,1,1,1.356,295.361,298.481
"49",49,3,52,24.94,37.41,1,1,0.69,300.483,302.935
"50",50,3,53,20.91,26.14,3,1,1.005,304.838,307.607
"51",51,3,54,14.58,16.04,4,0,2.382,310.477,314.632
"52",52,3,55,26.02,29.92,1,1,0.976,316.868,319.604
"53",53,3,56,21.08,24.24,3,1,2.322,321.89,325.978
"54",54,3,57,22.19,24.4,6,0,1.613,327.062,330.45
"55",55,3,58,20.18,30.27,4,1,0.344,333.42,335.539
"56",56,3,59,19.95,21.95,3,0,1.588,339.376,342.73
"57",57,3,60,27.93,29.33,3,0,0.851,345.833,348.453
"58",58,3,61,29.69,31.18,5,0,0.484,351.055,353.308
"59",59,3,62,26.7,40.06,3,1,0.217,356.194,358.18
"60",60,3,63,20.25,27.34,5,1,0.404,359.248,361.417
"61",61,3,64,21.73,27.16,4,1,0.627,363.353,365.755
"62",62,3,65,21.98,27.47,6,1,3.315,367.44,372.529
"63",63,3,66,32.48,43.85,1,1,0.397,374.215,376.384
"64",64,3,67,16.81,22.69,4,1,1.009,377.635,380.405
"65",65,3,68,2.85,3.85,6,0,1.539,381.522,384.826
"66",66,3,69,13.24,15.22,6,0,0.81,388.313,390.9
"67",67,3,70,23.19,28.99,5,1,1.494,393.286,396.556
"68",68,3,71,15.76,18.12,4,0,1.062,399.109,401.945
"69",69,3,72,27.5,31.63,2,1,0.535,404.181,406.484
"70",70,4,1,14.72,22.09,2,1,4.036,0.335,6.142
"71",71,4,2,21.85,25.13,4,0,2.007,8.226,12.015
"72",72,4,3,10.29,12.86,3,0,3.288,15.051,20.107
"73",73,4,4,12.66,14.56,3,0,3.679,22.676,28.132
"74",74,4,5,20.04,30.05,3,1,2.052,31.319,35.14
"75",75,4,6,15.58,23.37,1,1,3.923,36.809,42.499
"76",76,4,7,21.2,22.26,4,0,2.114,44.266,48.155
"77",77,4,9,17.74,26.61,5,1,0.928,61.819,64.522
"78",78,4,10,9.76,12.21,4,0,1.584,67.692,71.047
"79",79,4,11,12.46,13.71,4,0,0.607,72.181,74.55
"80",80,4,12,22.01,24.21,1,0,2.191,75.901,79.856
"81",81,4,13,21.63,24.88,5,0,1.043,81.04,83.861
"82",82,4,14,20.76,25.95,2,1,0.563,85.328,87.665
"83",83,4,15,14.4,19.43,6,1,3.354,89.849,94.972
"84",84,4,16,18.53,21.3,6,0,0.697,97.875,100.345
"85",85,4,17,22.31,30.12,2,1,1.158,101.429,104.35
"86",86,4,18,24.71,33.35,4,1,1.421,107.486,110.673
"87",87,4,19,12.35,12.96,6,0,0.629,113.342,115.745
"88",88,4,20,26.32,35.53,1,1,1.011,117.681,120.467
"89",89,4,21,26.08,35.21,3,1,1.117,121.719,124.605
"90",90,4,22,16.48,17.3,5,0,1.198,126.974,129.944
"91",91,4,23,20.41,30.62,4,1,0.2,131.579,133.548
"92",92,4,24,27.02,29.72,3,0,1.695,136.301,139.772
"93",93,4,25,19.77,24.71,1,1,0.363,140.873,143.009
"94",94,4,26,15.39,16.93,2,0,0.376,144.844,146.978
"95",95,4,27,18.9,23.62,6,1,1.93,149.466,153.17
"96",96,4,28,18.36,21.11,2,0,0.308,155.84,157.908
"97",97,4,29,18.26,19.18,1,0,0.112,161.412,163.297
"98",98,4,30,18.66,25.19,5,1,1.763,165.4,168.937
"99",99,4,31,26.47,39.71,6,1,0.112,170.572,172.458
"100",100,4,32,22.29,25.63,1,1,1.785,174.043,177.597
"101",101,4,33,10.23,10.74,2,0,0.203,181.368,183.337
"102",102,4,34,18.41,20.25,6,0,0.794,186.473,189.043
"103",103,4,35,12.83,14.12,5,0,0.824,191.996,194.583
"104",104,4,36,26.85,28.19,3,0,1.191,197.469,200.423
"105",105,4,37,22.22,24.44,5,0,1.986,206.746,210.501
"106",106,4,38,19.7,22.66,3,0,0.453,211.535,213.753
"107",107,4,39,21.7,22.78,1,0,1.032,217.124,219.927
"108",108,4,40,22.54,23.67,4,0,0.957,221.495,224.215
"109",109,4,41,20.22,23.25,2,1,1.892,225.4,229.054
"110",110,4,42,13.4,16.75,6,0,0.955,230.105,232.825
"111",111,4,43,24.8,37.2,1,1,0.532,235.36,237.663
"112",112,4,44,26.75,36.12,2,1,0.286,239.582,241.634
"113",113,4,45,16.24,17.86,6,0,0.067,243.954,245.789
"114",114,4,46,25.04,33.81,1,1,0.19,248.141,250.093
"115",115,4,47,22.39,25.75,4,1,1.238,253.197,256.199
"116",116,4,48,23.49,35.24,2,1,0.168,260.188,262.123
"117",117,4,49,19.78,29.67,4,1,0.405,263.174,265.344
"118",118,4,50,21.16,26.45,5,1,1.788,268.48,272.034
"119",119,4,51,27.88,37.64,4,1,0.18,273.336,275.288
"120",120,4,52,24.36,36.54,6,1,0.041,278.659,280.461
"121",121,4,53,16.38,22.11,5,1,1.183,283.964,286.917
"122",122,4,54,21.68,32.52,5,1,0.134,289.654,291.555
"123",123,4,55,17.93,18.83,5,0,1.071,292.924,295.761
"124",124,4,56,27.93,30.72,4,0,1.234,297.345,300.349
"125",125,4,57,26.18,27.49,2,0,1.381,302.734,305.889
"126",126,4,58,25.54,34.48,3,1,0.157,308.958,310.877
"127",127,4,59,18.51,27.77,3,1,0.331,312.729,314.831
"128",128,4,60,14.5,18.13,1,1,2.237,315.983,319.987
"129",129,4,61,19.34,20.31,3,0,0.671,321.188,323.625
"130",130,4,62,17.78,24,6,1,0.998,327.462,330.232
"131",131,4,63,26.61,30.6,1,1,1.067,331.817,334.654
"132",132,4,64,14.24,14.96,6,0,0.478,337.39,339.642
"133",133,4,65,14.06,16.17,5,0,0.709,340.927,343.396
"134",134,4,66,20.41,22.45,3,0,0.643,346.032,348.435
"135",135,4,67,22.99,25.29,1,1,0.894,351.989,354.659
"136",136,4,68,18.62,21.41,6,0,0.537,356.995,359.297
"137",137,4,69,20.34,25.42,3,1,0.39,362.918,365.071
"138",138,4,70,19.59,24.48,2,1,0.52,367.556,369.842
"139",139,4,71,18.21,22.77,4,0,3.079,371.077,375.914
"140",140,4,72,20.24,22.26,2,0,1.756,379.153,382.673
"141",141,6,1,19.8,26.72,3,1,3.032,0.059,4.864
"142",142,6,3,29.7,31.19,1,1,1.051,13.624,16.444
"143",143,6,4,17.9,26.85,1,1,0.694,18.045,20.515
"144",144,6,5,22.64,28.3,6,0,1.208,22.483,25.454
"145",145,6,6,16.52,20.65,5,0,1.56,26.571,29.89
"146",146,6,7,11.44,12.01,5,0,1.127,32.628,35.532
"147",147,6,8,27.96,32.16,2,1,0.854,38.885,41.505
"148",148,6,9,24.61,25.84,6,0,0.593,43.307,45.676
"149",149,6,10,27.29,28.65,4,0,1.458,47.978,51.199
"150",150,6,11,14.75,16.23,3,0,1.313,52.283,55.371
"151",151,6,12,16.93,25.4,2,1,0.842,58.289,60.891
"152",152,6,13,15.97,19.97,3,0,1.621,64.63,68.017
"153",153,6,14,19.79,20.78,2,1,0.91,69.285,71.972
"154",154,6,15,22.58,23.71,3,0,0.931,73.473,76.175
"155",155,6,16,20.43,23.49,4,0,0.915,77.945,80.631
"156",156,6,17,22.66,24.93,1,1,0.692,82.016,84.468
"157",157,6,18,20.29,22.32,2,1,0.484,85.504,87.756
"158",158,6,19,16.72,22.57,5,0,2.366,89.374,93.512
"159",159,6,20,20.14,22.15,6,0,1.779,96.632,100.186
"160",160,6,21,22.36,30.18,6,1,1.718,101.854,105.342
"161",161,6,22,19.11,28.66,6,1,1.874,107.777,111.415
"162",162,6,23,19.79,26.72,1,0,0.684,112.784,115.236
"163",163,6,24,30.49,45.74,5,1,1.69,116.921,120.374
"164",164,6,25,27.7,34.62,2,1,2.112,122.059,125.948
"165",165,6,26,15.2,17.48,3,0,1.845,127.766,131.387
"166",166,6,27,11.1,12.77,6,0,1.365,135.358,138.495
"167",167,6,28,26.03,39.05,4,1,1.265,139.947,142.982
"168",168,6,29,25.6,32,4,1,1.279,144.085,147.138
"169",169,6,30,19.91,26.87,4,1,1.62,149.024,152.41
"170",170,6,31,16.36,22.09,2,1,1.78,153.711,157.266
"171",171,6,32,24.95,37.42,3,1,1.266,158.801,161.838
"172",172,6,33,18.53,20.38,5,0,1.638,164.59,167.994
"173",173,6,34,17.17,21.46,1,1,1.157,170.831,173.751
"174",174,6,35,14.51,15.96,4,0,1.48,176.019,179.273
"175",175,6,36,16.68,19.19,1,1,1.607,180.541,183.912
"176",176,6,37,17.75,23.97,3,1,2.272,188.1,192.137
"177",177,6,38,10.73,11.8,6,0,0.83,193.205,195.808
"178",178,6,39,20.22,30.32,1,1,0.592,197.644,199.996
"179",179,6,40,23.89,26.28,2,1,2.222,201.198,205.185
"180",180,6,41,24.39,36.59,2,1,1.131,207.338,210.24
"181",181,6,42,24.26,27.9,3,0,1.748,213.712,217.232
"182",182,6,43,22.81,26.23,2,1,1.207,218.332,221.303
"183",183,6,44,22.66,28.32,1,1,1.028,222.888,225.691
"184",184,6,45,16.73,22.58,2,1,2.066,228.594,232.432
"185",185,6,46,11.81,15.95,5,0,0.979,235.769,238.522
"186",186,6,47,15.78,19.72,6,0,1.896,240.324,243.995
"187",187,6,48,21.97,25.26,1,1,0.745,246.131,248.65
"188",188,6,49,20.28,30.42,6,1,1.71,249.717,253.189
"189",189,6,50,15.77,17.34,5,0,1.029,255.59,258.393
"190",190,6,51,16.16,20.2,2,1,1.869,260.446,264.084
"191",191,6,52,18.87,21.7,6,0,0.967,265.669,268.405
"192",192,6,53,18.26,19.18,3,0,1.394,270.274,273.443
"193",193,6,54,23.16,28.94,4,0,3.211,276.881,281.854
"194",194,6,55,20.74,23.85,4,0,1.745,285.874,289.395
"195",195,6,56,16.46,24.69,4,1,1.762,290.713,294.25
"196",196,6,57,25.2,26.46,4,0,0.544,296.236,298.554
"197",197,6,58,10.6,11.66,3,0,1.166,299.806,302.742
"198",198,6,59,17.72,18.6,5,0,0.882,304.945,307.598
"199",199,6,60,23.14,25.46,1,1,0.787,310.185,312.737
"200",200,6,61,24.74,30.92,3,1,2.261,315.39,319.428
"201",201,6,62,19.85,26.8,1,1,0.486,322.581,324.834
"202",202,6,63,19.65,24.57,5,0,1.715,325.985,329.472
"203",203,6,64,18.07,27.11,5,1,2.186,332.426,336.38
"204",204,6,65,18.11,20.83,5,0,1.151,337.748,340.668
"205",205,6,66,24.29,26.72,4,0,0.895,342.821,345.49
"206",206,6,67,20.92,28.24,4,0,1.945,347.442,351.163
"207",207,6,68,23.26,24.42,2,0,2.145,352.714,356.635
"208",208,6,69,12.28,16.58,6,0,0.855,357.837,360.457
"209",209,6,70,21.64,22.72,1,1,0.857,362.475,365.095
"210",210,6,71,16.62,17.45,6,0,0.861,368.783,371.418
"211",211,6,72,18.46,27.69,3,1,2.092,373.12,376.975
"212",212,7,1,15.27,22.9,5,0,4.303,0.084,6.158
"213",213,7,2,17.7,19.47,5,0,1.472,7.809,11.063
"214",214,7,3,16.83,21.03,1,1,2.735,12.965,17.47
"215",215,7,4,13.83,18.67,2,1,1.57,19.122,22.459
"216",216,7,5,22.59,28.24,4,0,0.952,25.596,28.316
"217",217,7,6,16.63,18.3,4,0,0.525,29.783,32.068
"218",218,7,7,24.98,33.72,6,0,1.816,34.155,37.743
"219",219,7,8,17.93,18.82,3,0,2.308,40.144,44.217
"220",220,7,9,24.34,25.56,1,0,1.396,45.567,48.737
"221",221,7,10,20.2,25.25,5,0,0.815,51.941,54.528
"222",222,7,11,25.32,34.18,1,1,2.955,57.665,62.387
"223",223,7,12,9.73,11.19,5,0,1.067,66.073,68.91
"224",224,7,13,20.02,27.03,3,0,1.065,70.379,73.214
"225",225,7,14,17.67,18.55,6,0,0.457,74.466,76.684
"226",226,7,15,24.12,27.74,2,0,1.338,80.706,83.81
"227",227,7,16,18.05,20.76,1,0,0.776,86.796,89.333
"228",228,7,17,20.48,25.6,3,0,0.628,90.984,93.388
"229",229,7,18,17.74,19.51,6,0,2.841,97.258,101.862
"230",230,7,19,17.45,20.07,3,0,3.283,104.649,109.705
"231",231,7,20,22.35,25.71,6,0,0.939,112.224,114.927
"232",232,7,21,16.96,25.45,2,1,3.97,116.946,122.686
"233",233,7,22,26.49,27.81,2,0,0.204,124.671,126.64
"234",234,7,23,17.49,20.11,4,0,0.341,129.143,131.246
"235",235,7,24,19.64,24.55,6,0,0.537,132.931,135.233
"236",236,7,25,21.22,23.34,2,0,1.503,138.052,141.323
"237",237,7,26,19.41,24.26,2,1,2.578,143.809,148.164
"238",238,7,27,24.53,26.98,3,0,0.29,151.051,153.103
"239",239,7,28,28.32,42.48,4,1,1.779,156.473,160.027
"240",240,7,29,20.33,27.44,4,0,0.809,163.915,166.485
"241",241,7,30,26.85,28.2,4,0,0.437,170.439,172.641
"242",242,7,31,26.6,39.9,6,0,0.631,175.445,177.846
"243",243,7,32,22.82,23.96,5,0,0.18,179.648,181.602
"244",244,7,33,15.99,17.59,1,1,0.577,185.539,187.891
"245",245,7,34,29.67,44.5,3,1,2.838,189.11,193.715
"246",246,7,35,16.8,22.68,5,0,0.745,195.466,197.986
"247",247,7,36,23.37,35.06,1,1,0.473,200.338,202.573
"248",248,7,37,24.99,28.74,5,0,0.983,205.644,208.398
"249",249,7,38,18.65,20.52,3,0,0.471,211.101,213.336
"250",250,7,39,29.76,32.73,1,1,0.466,215.705,217.942
"251",251,7,40,12.56,18.84,1,1,0.481,219.627,221.878
"252",252,7,41,15.83,17.41,6,0,0.408,224.332,226.501
"253",253,7,42,20.54,25.67,6,0,0.994,227.801,230.572
"254",254,7,43,18.63,23.28,3,0,0.413,232.007,234.192
"255",255,7,44,13.02,16.27,4,0,0.968,235.243,237.98
"256",256,7,45,23.84,32.18,2,1,1.598,239.198,242.567
"257",257,7,46,27.33,40.99,2,1,1.449,244.586,247.807
"258",258,7,47,23.58,29.47,2,0,3.197,249.176,254.148
"259",259,7,48,19.77,20.76,3,0,0.41,256.651,258.82
"260",260,7,49,22.8,30.78,1,1,0.375,261.756,263.891
"261",261,7,50,15.79,21.32,4,0,0.314,265.226,267.312
"262",262,7,51,22.99,31.04,5,0,0.721,268.347,270.833
"263",263,7,52,22.63,26.02,4,0,0.141,274.086,275.989
"264",264,7,53,21.89,24.07,4,0,1.565,278.007,281.344
"265",265,7,54,15.6,17.16,5,0,0.463,283.78,286.017
"266",266,7,55,23.27,24.43,4,0,0.213,288.318,290.304
"267",267,7,56,19.42,24.27,1,1,0.914,291.506,294.191
"268",268,7,57,17.23,19.82,3,0,0.212,297.296,299.281
"269",269,7,58,17.53,19.28,2,0,2.448,300.532,304.754
"270",270,7,59,20.81,31.21,5,0,2.929,306.723,311.427
"271",271,7,60,15.15,15.91,2,0,0.068,315.248,317.084
"272",272,7,61,23.7,27.26,2,0,1.991,319.853,323.608
"273",273,7,62,24.23,25.44,6,0,0.829,327.496,330.098
"274",274,7,63,18.05,27.07,3,0,0.802,332.051,334.62
"275",275,7,64,27.39,28.75,1,1,2.107,338.457,342.328
"276",276,7,65,14.81,22.21,6,0,0.739,345.849,348.352
"277",277,7,67,25.89,34.96,3,1,1.565,358.262,361.599
"278",278,7,68,22.13,29.87,6,0,0.668,363.568,366.005
"279",279,7,69,24.31,36.46,4,0,0.419,369.609,371.794
"280",280,7,70,22.57,23.7,5,0,1.049,374.13,376.949
"281",281,7,71,18.85,21.68,1,1,0.959,379.269,381.989
"282",282,7,72,20.46,25.58,5,0,1.262,385.158,388.196
"283",283,8,1,13.5,15.53,5,0,1.405,0.31,3.481
"284",284,8,2,8.82,9.26,1,0,4.06,6.317,12.157
"285",285,8,4,25.67,38.5,3,1,1.464,23.219,26.456
"286",286,8,5,21.01,31.51,6,1,1.661,30.11,33.548
"287",287,8,6,16.05,21.67,5,1,1.545,36.234,39.554
"288",288,8,7,25.32,26.58,6,0,2.217,40.738,44.727
"289",289,8,8,18.7,20.57,4,0,1.511,48.581,51.867
"290",290,8,9,19.61,26.48,3,1,0.167,53.452,55.388
"291",291,8,10,20.89,26.11,4,1,0.745,56.907,59.426
"292",292,8,11,19.83,20.82,3,0,0.691,60.944,63.398
"293",293,8,12,13.51,16.89,5,1,2.471,65.333,69.571
"294",294,8,13,25.38,26.65,2,0,0.973,70.655,73.391
"295",295,8,14,18.96,21.8,2,0,0.955,74.592,77.312
"296",296,8,15,25.81,29.68,4,1,0.428,78.864,81.066
"297",297,8,16,21.6,23.76,1,0,1.789,82.719,86.272
"298",298,8,17,17.84,20.52,1,1,0.415,87.357,89.542
"299",299,8,18,12.37,13.61,3,0,0.903,90.661,93.33
"300",300,8,19,20.74,25.92,3,1,0.495,96.884,99.153
"301",301,8,20,15.4,17.71,3,1,1.582,101.422,104.776
"302",302,8,21,26.99,40.48,4,1,0.022,106.478,108.263
"303",303,8,22,23.73,32.04,2,1,0.852,110.432,113.051
"304",304,8,23,22.75,34.12,5,1,0.437,114.487,116.69
"305",305,8,24,24.82,31.03,2,1,0.632,119.492,121.894
"306",306,8,25,15.61,17.17,6,0,1.068,124.264,127.1
"307",307,8,26,11.7,12.28,5,0,0.481,129.786,132.039
"308",308,8,27,13.35,16.68,1,1,1.256,133.875,136.895
"309",309,8,28,18.51,27.77,2,1,0.556,140.432,142.751
"310",310,8,29,18.75,20.63,2,1,2.416,143.819,148.006
"311",311,8,30,23.72,35.58,1,1,0.603,149.408,151.778
"312",312,8,31,14.34,15.78,5,0,0.737,155.315,157.818
"313",313,8,32,17.85,22.31,6,1,0.611,160.905,163.291
"314",314,8,33,17.07,17.92,4,0,0.384,167.011,169.163
"315",315,8,34,17.64,23.82,1,1,0.304,173.051,175.12
"316",316,8,35,22.13,25.46,6,1,0.771,177.473,180.009
"317",317,8,36,19.7,26.6,4,1,0.488,182.829,185.081
"318",318,8,37,19.57,20.55,5,0,1.284,189.72,192.79
"319",319,8,38,21.02,31.52,4,1,0.929,194.091,196.794
"320",320,8,39,14.84,15.59,3,0,1.361,198.763,201.9
"321",321,8,40,21.44,24.66,5,1,2.214,204.87,208.858
"322",322,8,41,14.42,21.63,2,1,1.403,210.576,213.746
"323",323,8,42,22.1,23.21,2,0,0.581,216.582,218.936
"324",324,8,43,16.61,18.27,5,0,1.711,220.437,223.924
"325",325,8,44,6.29,8.5,1,1,1.785,225.626,229.18
"326",326,8,45,16.38,22.12,6,1,1.729,231.683,235.187
"327",327,8,46,22.9,26.33,1,1,2.385,236.738,240.894
"328",328,8,47,20.05,30.08,6,1,1.893,243.879,247.534
"329",329,8,48,20.33,30.49,5,1,1.703,249.485,252.956
"330",330,8,49,28.71,43.06,1,1,0.352,255.091,257.211
"331",331,8,50,24.39,30.48,6,1,0.922,259.313,261.999
"332",332,8,51,20.07,27.09,4,1,0.299,264.352,266.421
"333",333,8,52,21.88,27.35,2,1,0.246,270.342,272.361
"334",334,8,53,26.99,29.69,6,1,0.087,273.645,275.497
"335",335,8,54,17.5,20.12,2,0,1.389,276.799,279.953
"336",336,8,55,20.77,22.85,4,0,1.104,282.172,285.041
"337",337,8,56,27.01,36.46,5,1,0.428,286.559,288.763
"338",338,8,57,21.65,22.74,4,0,0.815,290.965,293.551
"339",339,8,58,23.88,35.81,3,1,0.489,296.571,298.823
"340",340,8,59,18.96,25.6,3,1,2.159,299.924,303.846
"341",341,8,60,18.08,20.79,4,0,0.44,307.3,309.501
"342",342,8,61,27.18,29.89,3,0,1.069,313.239,316.075
"343",343,8,62,20.69,22.76,1,0,0.66,319.496,321.914
"344",344,8,63,25.76,32.2,4,1,0.728,323.451,325.954
"345",345,8,64,25.86,32.32,5,1,0.043,328.089,329.908
"346",346,8,65,20.9,22.99,2,0,1.588,332.527,335.881
"347",347,8,66,20.92,28.25,2,1,0.522,337.666,339.952
"348",348,8,67,22.76,26.17,3,1,0.621,342.071,344.457
"349",349,8,68,14.89,18.62,3,1,1.85,347.009,350.631
"350",350,8,69,28.85,33.18,6,1,0.373,354.351,356.486
"351",351,8,70,22.47,23.59,1,0,1.283,357.705,360.758
"352",352,8,71,20.35,25.44,1,1,1.165,362.126,365.063
"353",353,8,72,16.25,17.07,6,0,0.751,367.933,370.452
"354",354,9,1,22.49,33.73,1,0,0.578,0.329,2.681
"355",355,9,2,14,21,4,0,1.573,6.252,9.605
"356",356,9,3,18.3,21.04,3,0,0.957,12.358,15.077
"357",357,9,5,20.37,25.46,2,1,1.087,25.54,28.394
"358",358,9,6,14.7,15.43,5,0,0.571,32.314,34.65
"359",359,9,7,6.9,7.94,5,0,0.645,35.751,38.171
"360",360,9,8,16.58,18.24,1,0,0.357,39.638,41.757
"361",361,9,9,12.64,18.96,2,1,0.51,43.91,46.196
"362",362,9,10,25.67,32.09,6,1,0.421,49.182,51.368
"363",363,9,11,22.05,23.15,1,0,0.335,54.422,56.524
"364",364,9,12,20.32,27.43,4,1,0.194,59.578,61.547
"365",365,9,14,18.56,20.41,2,0,0.39,73.509,75.662
"366",366,9,15,20.15,23.17,2,1,1.234,76.746,79.75
"367",367,9,16,19,25.65,3,1,0.439,83.62,85.823
"368",368,9,17,17.68,23.87,6,1,0.225,88.459,90.444
"369",369,9,18,30.62,38.28,5,1,0.382,92.029,94.182
"370",370,9,19,14.28,16.42,6,0,0.301,95.366,97.435
"371",371,9,20,23.81,25,4,1,1.123,98.704,101.591
"372",372,9,21,16.82,18.5,3,0,0.249,103.092,105.111
"373",373,9,22,22.56,23.69,6,0,0.344,106.195,108.313
"374",374,9,23,22.3,23.41,3,0,0.889,111.818,114.47
"375",375,9,24,20.9,31.35,3,1,0.41,116.857,119.043
"376",376,9,25,15.64,21.12,2,1,2.022,121.646,125.433
"377",377,9,26,24.33,25.55,2,0,1.326,127.102,130.189
"378",378,9,27,31.98,36.77,4,1,0.148,133.375,135.293
"379",379,9,28,20.61,27.83,5,1,0.183,138.364,140.316
"380",380,9,29,8.53,9.38,4,0,1.22,142.735,145.722
"381",381,9,30,20.03,22.03,5,1,0.66,148.792,151.21
"382",382,9,31,22.51,24.77,6,0,1.268,153.448,156.484
"383",383,9,32,10.03,12.54,3,1,4.057,158.987,164.811
"384",384,9,33,21.8,27.24,4,1,2.112,166.796,170.683
"385",385,9,34,20.47,25.59,1,1,0.196,172.952,174.921
"386",386,9,35,15.29,22.94,6,1,1.104,176.339,179.21
"387",387,9,36,22.39,33.59,5,1,1.109,180.727,183.598
"388",388,9,37,17.97,24.26,6,1,0.25,188.569,190.589
"389",389,9,38,19.08,21.94,6,0,0.459,192.057,194.275
"390",390,9,39,3.88,5.82,2,0,0.1,195.528,197.395
"391",391,9,40,22.2,27.75,3,1,1.069,199.815,202.652
"392",392,9,41,18.05,24.37,1,1,0.569,206.323,208.658
"393",393,9,42,25.52,38.28,6,1,0.512,211.011,213.297
"394",394,9,43,13.01,14.97,5,0,0.098,216.234,218.102
"395",395,9,44,24.64,33.27,2,1,0.447,220.622,222.841
"396",396,9,45,26,32.51,4,1,0.541,225.527,227.83
"397",397,9,46,29.4,32.34,5,0,0.263,229.548,231.584
"398",398,9,47,16.65,24.97,1,1,0.397,234.654,236.822
"399",399,9,48,17.79,19.57,3,0,0.276,240.527,242.579
"400",400,9,49,23.43,35.14,5,1,0.512,246.5,248.786
"401",401,9,50,15.21,20.53,4,1,0.107,250.121,251.989
"402",402,9,51,19.31,28.96,4,1,0.223,255.26,257.246
"403",403,9,52,27.42,34.28,5,1,0.312,258.98,261.066
"404",404,9,53,22.97,25.27,2,1,0.992,262.1,264.854
"405",405,9,54,21.74,27.17,1,1,0.017,266.906,268.691
"406",406,9,55,21.26,28.7,5,1,0.343,270.66,272.779
"407",407,9,56,18.38,22.98,6,1,1.983,274.564,278.318
"408",408,9,57,32.32,33.93,4,0,0.622,280.637,283.023
"409",409,9,58,22.64,28.31,2,1,0.013,284.758,286.544
"410",410,9,59,14.14,16.26,1,1,1.51,288.446,291.716
"411",411,9,60,26.11,30.03,4,1,0.406,294.67,296.838
"412",412,9,61,16.16,16.97,5,0,0.649,299.676,302.095
"413",413,9,62,22.24,23.35,1,1,0.632,304.164,306.566
"414",414,9,63,28.06,32.27,2,1,0.502,307.701,309.97
"415",415,9,64,18.5,20.36,1,1,0.509,312.606,314.874
"416",416,9,65,22.01,25.31,3,1,0.613,318.646,321.033
"417",417,9,66,29.6,32.56,4,0,0.767,324.853,327.389
"418",418,9,67,16.92,17.76,6,0,1.172,329.392,332.327
"419",419,9,68,17.74,26.61,3,1,0.248,336.132,338.151
"420",420,9,69,11.6,12.77,6,0,0.428,339.92,342.122
"421",421,9,70,15.66,21.15,3,1,0.23,345.91,347.912
"422",422,9,71,24.64,25.87,2,0,0.642,350.298,352.7
"423",423,9,72,19.62,20.6,3,0,0.311,355.621,357.706
"424",424,10,1,23.83,26.21,3,0,2.632,0.315,4.721
"425",425,10,2,14.13,19.08,5,0,2.068,8.373,12.212
"426",426,10,3,16.33,20.41,5,0,1.061,14.23,17.067
"427",427,10,4,21.69,23.86,4,0,1.199,20.805,23.774
"428",428,10,5,26.01,35.12,1,1,1.86,25.743,29.381
"429",429,10,6,14.91,17.15,2,0,1.057,31.082,33.902
"430",430,10,7,14.56,21.84,3,1,3.629,36.238,41.644
"431",431,10,8,17.6,22,4,0,1.699,45.665,49.136
"432",432,10,9,17.99,18.89,6,0,0.933,52.406,55.108
"433",433,10,10,18.35,19.27,4,0,0.617,57.779,60.165
"434",434,10,11,15.07,20.34,2,1,1.641,61.299,64.704
"435",435,10,12,19.49,22.41,3,0,2.443,67.289,71.494
"436",436,10,13,19.16,22.03,5,0,1.776,74.18,77.716
"437",437,10,14,29.62,39.98,3,1,2.27,80.07,84.108
"438",438,10,15,22.44,24.68,2,0,2.971,85.792,90.532
"439",439,10,16,19.51,29.27,5,1,3.579,92.049,97.406
"440",440,10,17,23.59,35.38,4,1,1.729,99.491,102.995
"441",441,10,18,13.33,14.67,6,0,0.687,105.748,108.201
"442",442,10,19,17.78,26.68,2,1,1.395,109.752,112.922
"443",443,10,20,25.42,26.69,1,0,0.532,114.408,116.71
"444",444,10,21,21.65,22.73,2,0,0.997,118.278,121.049
"445",445,10,23,22.78,28.47,3,0,0.719,130.108,132.594
"446",446,10,24,19.98,22.98,1,0,0.547,133.729,136.048
"447",447,10,25,21.44,32.16,1,1,1.075,137.449,140.286
"448",448,10,26,11.95,14.94,1,0,2.881,142.139,146.794
"449",449,10,27,20.63,22.69,5,0,1.298,148.962,152.033
"450",450,10,28,23.07,31.14,6,1,1.718,153.734,157.221
"451",451,10,29,16.48,18.96,4,0,0.409,159.106,161.275
"452",452,10,30,19.29,24.11,2,1,1.874,162.778,166.414
"453",453,10,31,13.91,14.6,3,0,0.701,168.767,171.238
"454",454,10,32,16.08,21.71,4,1,1.423,172.588,175.775
"455",455,10,33,19.71,22.67,6,0,0.606,178.478,180.847
"456",456,10,34,27.1,33.88,6,0,2.629,182.415,186.803
"457",457,10,35,13.35,14.02,5,0,1.76,188.555,192.076
"458",458,10,36,7.97,8.76,1,0,0.294,193.462,195.53
"459",459,10,37,21.38,28.87,6,0,3.684,199.936,205.391
"460",460,10,38,22.29,24.51,2,0,0.345,207.043,209.162
"461",461,10,39,23.91,26.3,1,0,0.221,211.431,213.417
"462",462,10,40,22.16,33.24,6,1,1.676,216.136,219.574
"463",463,10,41,20.61,30.91,3,1,0.451,222.176,224.395
"464",464,10,42,20.19,27.26,5,0,1.324,226.848,229.935
"465",465,10,43,20.85,21.89,4,0,0.358,231.069,233.189
"466",466,10,44,22.09,27.61,6,0,0.429,236.542,238.744
"467",467,10,45,25.9,29.79,3,0,0.52,240.18,242.465
"468",468,10,46,28.68,31.55,3,0,0.718,243.549,246.035
"469",469,10,47,14.27,19.26,3,0,0.034,247.721,249.523
"470",470,10,48,12.66,18.99,5,1,0.525,252.126,254.411
"471",471,10,49,28.32,42.48,1,1,0.793,258.266,260.835
"472",472,10,50,22.68,26.09,2,0,1.16,263.955,266.893
"473",473,10,51,29.73,37.17,4,1,0.8,269.028,271.597
"474",474,10,52,9.68,12.1,1,0,1.106,274.617,277.487
"475",475,10,53,19.89,20.88,3,0,0.238,280.791,282.793
"476",476,10,54,26.86,30.89,1,0,1.243,284.145,287.149
"477",477,10,55,21.75,23.92,6,0,0.16,289.084,291.019
"478",478,10,56,17.57,18.45,2,0,0.101,294.422,296.291
"479",479,10,57,16.17,21.83,1,1,1.494,299.645,302.916
"480",480,10,58,24.38,26.82,5,0,0.637,304.751,307.153
"481",481,10,59,15.25,20.58,2,1,1.085,310.79,313.644
"482",482,10,60,15.83,16.62,5,0,0.016,316.363,318.149
"483",483,10,61,18.25,19.17,6,0,0.116,321.335,323.222
"484",484,10,62,23.18,34.77,2,1,0.82,324.64,327.225
"485",485,10,63,14.45,15.9,4,0,0.021,328.895,330.679
"486",486,10,64,13.57,14.25,1,0,0.256,334.1,336.119
"487",487,10,65,10.27,12.84,2,0,0.098,337.169,339.038
"488",488,10,66,21.12,26.4,5,0,0.585,340.907,343.26
"489",489,10,67,18.5,21.27,4,0,0.132,344.912,346.814
"490",490,10,68,24.67,28.37,5,0,0.44,350.835,353.038
"491",491,10,69,21.47,32.21,4,1,2.142,355.758,359.662
"492",492,10,70,17.32,21.65,3,0,0.853,361.446,364.066
"493",493,10,71,9.71,13.11,4,0,0.141,366.135,368.038
"494",494,10,72,8.37,9.63,6,0,0.252,371.775,373.793
"495",495,11,2,13.91,20.87,6,0,1.371,7.902,11.055
"496",496,11,3,22.34,25.69,1,0,0.804,13.024,15.593
"497",497,11,4,20.99,26.24,4,0,1.159,17.628,20.549
"498",498,11,5,29.26,43.89,1,1,0.441,21.834,24.053
"499",499,11,6,19.07,20.02,3,0,0.058,25.338,27.156
"500",500,11,7,16.85,21.07,5,0,0.462,28.942,31.177
"501",501,11,8,14.67,15.41,2,0,0.056,33.38,35.198
"502",502,11,9,22.06,27.57,3,0,0.347,37.033,39.152
"503",503,11,10,17.18,25.77,2,1,2.297,42.907,46.978
"504",504,11,11,26.04,28.64,6,0,0.034,49.881,51.684
"505",505,11,12,24.97,31.22,6,0,1.077,55.071,57.924
"506",506,11,13,20.14,27.2,2,1,1.531,59.608,62.912
"507",507,11,14,22.3,30.11,6,0,0.764,66.616,69.152
"508",508,11,15,16.33,18.78,6,0,0.264,70.987,73.024
"509",509,11,16,21.75,32.62,4,1,1.568,75.66,78.997
"510",510,11,17,11.55,12.7,1,0,0.23,80.982,82.984
"511",511,11,18,24.82,26.06,5,0,0.219,86.705,88.69
"512",512,11,19,15.2,20.51,4,0,0.89,91.794,94.447
"513",513,11,20,18.1,19.91,2,0,0.44,95.548,97.751
"514",514,11,21,23.91,35.87,5,1,0.386,100.537,102.689
"515",515,11,22,21.07,22.13,6,0,0.006,105.142,106.911
"516",516,11,23,23.19,31.3,3,1,1.024,109.38,112.166
"517",517,11,24,20.9,28.22,5,1,0.443,115.336,117.555
"518",518,11,25,22.15,23.26,4,0,0.099,121.377,123.246
"519",519,11,26,23.07,25.37,5,0,0.398,124.597,126.766
"520",520,11,27,16.61,19.1,4,0,0.169,128.267,130.203
"521",521,11,28,17.64,23.82,1,0,0.488,134.091,136.343
"522",522,11,29,33.53,36.88,4,0,0.488,137.795,140.047
"523",523,11,30,20.44,21.46,1,0,0.024,142.7,144.486
"524",524,11,31,22.7,34.05,3,1,0.392,146.771,148.923
"525",525,11,32,17.91,22.39,2,0,0.628,150.776,153.179
"526",526,11,33,30.76,35.37,5,0,0.183,156.549,158.502
"527",527,11,34,25.19,28.96,3,0,0.221,161.688,163.674
"528",528,11,35,28.09,30.9,3,0,0.422,164.757,166.943
"529",529,11,36,20.11,23.12,2,0,0.162,170.297,172.233
"530",530,11,37,27.24,40.86,5,1,0.55,176.037,178.356
"531",531,11,38,17.55,19.31,5,0,0.11,181.31,183.195
"532",532,11,39,12.26,14.1,3,0,0.121,186.114,188
"533",533,11,40,24.1,26.51,2,0,0.159,189.085,191.002
"534",534,11,41,24.75,33.41,5,1,0.406,192.222,194.391
"535",535,11,42,15.31,16.84,6,0,0.281,195.658,197.711
"536",536,11,43,13.36,15.37,1,0,0.192,199.179,201.149
"537",537,11,44,8.95,11.19,1,0,0.099,204.968,206.838
"538",538,11,45,10.39,10.91,3,0,0.321,208.522,210.608
"539",539,11,46,23.64,31.91,3,1,0.109,212.294,214.18
"540",540,11,47,18.65,23.31,3,0,0.782,216.398,218.951
"541",541,11,48,17.27,18.13,2,0,0.421,220.103,222.288
"542",542,11,49,20.4,23.46,5,0,0.413,224.607,226.794
"543",543,11,50,15.88,18.27,2,0,0.309,230.23,232.315
"544",544,11,51,10.44,13.05,5,0,0.276,235.336,237.389
"545",545,11,52,23.44,24.61,4,0,0.409,239.49,241.659
"546",546,11,53,24.69,28.4,4,0,0.197,244.279,246.248
"547",547,11,54,24.92,37.37,2,1,0.146,248.834,250.752
"548",548,11,55,14.26,17.83,6,0,0.11,253.205,255.091
"549",549,11,56,31.16,34.28,1,0,0.384,256.259,258.412
"550",550,11,57,21.11,22.17,6,0,0.014,260.997,262.782
"551",551,11,58,24.44,36.66,6,1,0.319,266.637,268.723
"552",552,11,59,27.38,34.23,4,1,0.002,271.826,273.595
"553",553,11,60,22.48,28.1,2,0,0.268,275.48,277.516
"554",554,11,61,14.93,15.67,1,0,0.038,280.485,282.287
"555",555,11,62,24.82,33.51,6,1,1.337,285.491,288.594
"556",556,11,63,18.24,24.62,2,1,0.534,289.862,292.166
"557",557,11,64,22.74,34.11,1,1,0.274,294.801,296.836
"558",558,11,65,21.43,28.93,1,1,0.069,298.823,300.658
"559",559,11,66,20.52,30.79,4,1,0.356,301.759,303.877
"560",560,11,67,27.38,41.07,3,1,0.382,305.229,307.382
"561",561,11,68,14.84,16.32,4,0,1.34,308.783,311.887
"562",562,11,69,10.91,12,3,0,0.038,313.022,314.823
"563",563,11,70,19.71,22.67,6,0,0.109,316.024,317.894
"564",564,11,71,16.25,21.94,4,1,0.636,321.831,324.234
"565",565,11,72,19.09,20.05,5,0,0.249,326.386,328.405
"566",566,12,1,12.04,12.64,4,0,1.908,0.079,3.75
"567",567,12,2,28.73,43.1,5,1,3.343,5.05,10.174
"568",568,12,3,21.36,23.5,1,1,4.127,11.324,17.215
"569",569,12,4,24.61,36.92,1,1,0.329,19.467,21.569
"570",570,12,5,24.69,37.04,4,1,0.46,23.672,25.907
"571",571,12,6,17.12,18.83,4,1,3.597,29.111,34.483
"572",572,12,7,17.55,18.43,5,1,1.672,38.404,41.841
"573",573,12,8,24.5,28.17,3,1,1.24,44.844,47.848
"574",574,12,9,26.46,39.69,2,1,0.253,51.135,53.153
"575",575,12,10,21.02,28.38,6,1,0.467,55.873,58.109
"576",576,12,11,21.1,28.48,2,1,0.129,60.795,62.698
"577",577,12,12,20.23,25.29,5,1,0.156,66.552,68.47
"578",578,12,13,24.6,28.29,4,1,0.704,72.509,74.978
"579",579,12,14,17.46,23.57,5,1,0.768,77.348,79.884
"580",580,12,15,18.83,21.66,2,1,0.166,81.302,83.237
"581",581,12,16,19.63,24.53,6,1,0.691,84.889,87.341
"582",582,12,17,16.2,18.62,6,1,3.282,89.193,94.248
"583",583,12,18,26.94,28.29,2,1,0.257,95.65,97.669
"584",584,12,19,18.26,27.39,3,1,0.271,100.772,102.809
"585",585,12,20,20.37,21.39,6,1,0.3,106.696,108.764
"586",586,12,21,14.9,18.62,2,1,0.652,112.136,114.555
"587",587,12,22,20.31,23.35,5,1,0.361,118.058,120.194
"588",588,12,23,17.67,22.09,1,1,0.841,121.579,124.182
"589",589,12,24,18.68,20.54,6,1,0.554,127.002,129.322
"590",590,12,25,17.22,23.25,3,1,0.094,131.773,133.642
"591",591,12,26,18.69,20.56,5,1,1.152,137.38,140.3
"592",592,12,27,22.95,25.24,3,1,0.425,142.419,144.605
"593",593,12,28,23.48,31.7,4,1,0.729,146.139,148.642
"594",594,12,29,21.17,22.23,3,1,1.473,151.011,154.248
"595",595,12,30,23.95,26.35,2,1,0.787,155.617,158.17
"596",596,12,31,18.12,27.19,6,1,0.006,160.221,161.99
"597",597,12,32,17.8,18.69,1,1,1.292,163.776,166.829
"598",598,12,33,16.98,21.23,3,1,0.069,168.615,170.45
"599",599,12,34,10.52,13.15,4,1,3.928,171.484,177.173
"600",600,12,35,11.18,12.86,1,1,0.175,178.893,180.827
"601",601,12,36,8.4,11.34,1,1,0.323,182.129,184.215
"602",602,12,37,16.21,24.31,2,1,0.655,187.685,190.105
"603",603,12,38,17.99,26.98,1,1,0.048,193.692,195.51
"604",604,12,39,19.35,21.29,3,1,0.133,196.679,198.581
"605",605,12,40,16.18,21.84,3,1,0.351,200.133,202.251
"606",606,12,41,21.82,29.46,2,1,0.215,205.005,206.99
"607",607,12,42,19.09,21,1,1,0.41,210.026,212.212
"608",608,12,43,7.63,9.53,2,1,0.419,215.232,217.419
"609",609,12,44,25.92,34.99,6,1,0.298,218.586,220.655
"610",610,12,45,13.91,17.38,4,1,0.398,221.99,224.159
"611",611,12,46,23.14,31.23,1,1,0.841,226.412,229.014
"612",612,12,47,17.03,18.73,6,1,0.53,232.218,234.52
"613",613,12,48,21.48,26.85,3,1,0.47,235.639,237.875
"614",614,12,49,21.52,24.75,4,1,0.699,240.777,243.247
"615",615,12,50,19.51,20.49,6,1,0.15,244.782,246.701
"616",616,12,51,20.8,26,6,1,0.098,248.186,250.055
"617",617,12,52,16.11,24.17,4,1,0.155,251.289,253.208
"618",618,12,53,24.23,30.28,1,1,0.865,256.411,259.047
"619",619,12,54,19.73,22.69,6,1,0.379,260.849,263.001
"620",620,12,56,17.11,25.67,5,1,0.789,275.183,277.735
"621",621,12,57,18.01,24.31,4,1,0.515,281.505,283.792
"622",622,12,58,17.22,18.09,1,0,2.861,287.095,291.717
"623",623,12,59,19.85,20.84,3,1,0.087,294.637,296.489
"624",624,12,60,22.36,25.71,5,1,0.289,298.691,300.742
"625",625,12,61,14.49,21.74,6,1,0.05,304.514,306.333
"626",626,12,62,31.35,32.92,2,1,2.786,309.169,313.724
"627",627,12,63,22.98,26.43,1,1,0.256,315.076,317.096
"628",628,12,64,17.83,19.62,4,1,0.082,318.93,320.783
"629",629,12,65,23.64,27.18,2,1,0.198,323.902,325.872
"630",630,12,66,22.71,24.98,5,1,0.292,327.84,329.891
"631",631,12,67,23.1,25.41,2,1,0.071,331.644,333.479
"632",632,12,68,21.51,24.74,3,1,0.519,335.949,338.235
"633",633,12,69,17.49,23.6,5,1,0.315,341.688,343.774
"634",634,12,70,24.4,36.6,3,1,0.277,345.159,347.212
"635",635,12,71,14.33,15.04,5,0,1.872,349.548,353.185
"636",636,12,72,22.95,28.69,5,1,0.866,354.57,357.206
"637",637,13,1,22.44,23.57,1,0,3.777,0.074,5.613
"638",638,13,2,15.92,19.9,4,0,0.852,7.149,9.768
"639",639,13,3,23.66,27.21,3,0,1.704,12.955,16.425
"640",640,13,4,23.64,31.91,6,0,2.066,17.593,21.431
"641",641,13,5,16.64,18.3,6,0,1.216,24.651,27.638
"642",642,13,6,19.26,24.08,6,0,0.835,28.872,31.476
"643",643,13,7,20.38,30.57,2,0,1.335,34.796,37.9
"644",644,13,8,24.2,26.62,5,0,0.389,39.134,41.287
"645",645,13,9,16.91,17.76,3,0,2.725,44.406,48.895
"646",646,13,10,18.99,20.89,2,0,1.64,51.147,54.551
"647",647,13,11,22.35,30.17,2,0,0.681,56.186,58.639
"648",648,13,13,19.79,21.77,4,0,1.159,68.116,71.053
"649",649,13,14,21.35,23.48,3,0,0.595,72.505,74.873
"650",650,13,15,21.38,32.07,4,0,1.07,78.11,80.947
"651",651,13,16,18.37,21.13,2,0,0.692,83.583,86.034
"652",652,13,17,30.15,45.23,6,0,1.297,88.555,91.625
"653",653,13,18,27.67,34.59,3,0,1.159,93.277,96.196
"654",654,13,19,16.38,18.83,1,0,2.023,99.117,102.904
"655",655,13,20,20.85,31.27,3,0,3.942,104.773,110.48
"656",656,13,21,22.98,25.27,1,0,2.566,112.015,116.353
"657",657,13,22,26.04,29.95,5,0,0.857,118.739,121.358
"658",658,13,23,22.5,30.38,3,0,0.502,123.477,125.745
"659",659,13,24,22.88,34.32,1,0,2.944,127.331,132.037
"660",660,13,25,18.76,25.33,4,0,0.86,136.024,138.643
"661",661,13,26,27.41,28.78,4,0,0.894,141.063,143.715
"662",662,13,27,18.51,21.29,6,0,1.471,146.469,149.706
"663",663,13,28,21.46,26.82,1,0,0.365,152.159,154.294
"664",664,13,29,13.25,19.88,5,0,0.362,157.282,159.417
"665",665,13,30,19.02,19.97,5,0,1.461,162.671,165.908
"666",666,13,31,14.96,20.19,1,0,0.094,168.894,170.763
"667",667,13,32,16.1,16.9,6,0,0.564,172.248,174.583
"668",668,13,33,11.84,12.43,2,0,4.331,176.368,182.476
"669",669,13,34,21.1,28.48,5,0,2.442,183.577,187.782
"670",670,13,35,14.59,18.24,5,0,0.542,189.55,191.853
"671",671,13,36,13.05,15,4,0,1.259,193.121,196.14
"672",672,13,37,19.17,22.05,3,0,0.734,201.029,203.532
"673",673,13,38,11.81,14.76,3,0,0.582,207.453,209.805
"674",674,13,39,21.73,32.59,1,0,1,211.908,214.679
"675",675,13,40,23.08,31.16,6,0,1.738,218.465,221.969
"676",676,13,41,31.73,33.32,1,0,2.777,224.739,229.277
"677",677,13,42,25.4,38.1,3,0,2.271,231.396,235.435
"678",678,13,43,12.29,13.52,3,0,1.299,238.888,241.959
"679",679,13,44,20.98,26.23,6,0,3.526,245.862,251.151
"680",680,13,45,19.08,20.98,6,0,0.507,254.304,256.574
"681",681,13,46,21.24,28.68,2,0,0.437,258.142,260.345
"682",682,13,47,20.31,23.36,2,0,0.395,264.049,266.218
"683",683,13,48,18.95,28.42,4,0,1.617,269.554,272.943
"684",684,13,49,20.54,30.81,5,0,0.522,275.562,277.848
"685",685,13,50,13.63,18.4,3,0,0.458,281.418,283.637
"686",686,13,51,17.23,18.09,3,0,0.618,285.906,288.292
"687",687,13,52,26.04,32.55,5,0,0.176,291.195,293.147
"688",688,13,53,19.79,20.78,2,0,1.102,295.15,298.019
"689",689,13,54,16.4,18.86,5,0,1.618,300.105,303.493
"690",690,13,55,23.54,31.78,4,0,1.715,306.128,309.616
"691",691,13,56,22.34,25.69,4,0,1.726,313.253,316.739
"692",692,13,57,15.79,23.69,6,0,2.214,320.094,324.081
"693",693,13,58,23.05,24.2,5,0,0.856,325.683,328.303
"694",694,13,59,19.67,24.58,4,0,0.713,331.123,333.61
"695",695,13,60,23.19,24.35,6,0,1.113,335.394,338.281
"696",696,13,61,22.77,25.05,4,0,1.158,340.917,343.836
"697",697,13,62,20.12,22.13,1,0,0.292,346.239,348.29
"698",698,13,63,29.68,31.16,4,0,0.393,349.41,351.579
"699",699,13,64,13.87,15.95,6,0,0.228,355.583,357.585
"700",700,13,65,19.4,29.1,2,0,4.06,360.472,366.295
"701",701,13,66,12.81,14.09,5,0,1.425,368.53,371.718
"702",702,13,67,16.7,18.37,2,0,0.122,372.785,374.671
"703",703,13,68,18.47,21.24,1,0,0.768,376.74,379.277
"704",704,13,69,18.58,25.08,5,0,1.546,382.93,386.25
"705",705,13,70,19.32,24.14,2,0,2.264,388.636,392.674
"706",706,13,72,18.75,23.44,1,1,1.874,405.906,409.543
"707",707,14,2,24.52,36.78,6,1,1.479,10.251,13.505
"708",708,14,3,17.01,22.97,5,0,1.275,14.673,17.709
"709",709,14,4,13.42,15.43,1,1,0.814,19.077,21.664
"710",710,14,5,22.62,23.75,4,0,0.781,22.998,25.552
"711",711,14,6,26.92,29.61,5,0,1.122,28.137,31.024
"712",712,14,7,18.59,23.23,5,1,0.562,34.961,37.297
"713",713,14,8,14.23,21.34,1,1,0.414,39.55,41.736
"714",714,14,9,28.86,33.19,3,1,0.718,42.837,45.324
"715",715,14,10,20.7,21.74,3,0,0.081,46.474,48.326
"716",716,14,11,19.52,21.48,6,0,0.611,50.529,52.915
"717",717,14,12,17.98,26.97,5,1,0.973,54.967,57.703
"718",718,14,13,17.86,18.75,1,0,0.777,59.539,62.092
"719",719,14,14,14.08,17.6,4,0,1.36,64.628,67.747
"720",720,14,15,7.41,7.78,5,0,1.079,69.116,71.97
"721",721,14,16,24.38,26.82,1,1,0.562,73.354,75.689
"722",722,14,17,20.63,27.85,1,1,0.051,79.377,81.196
"723",723,14,18,20.96,26.2,3,1,0.003,85,86.769
"724",724,14,19,15.55,19.44,1,1,0.279,87.836,89.889
"725",725,14,20,15.25,17.54,6,0,0.912,90.94,93.626
"726",726,14,21,19.42,26.22,2,1,0.086,95.245,97.097
"727",727,14,22,28.6,35.75,2,1,0.667,100.834,103.27
"728",728,14,23,13.2,17.83,3,1,0.569,106.306,108.643
"729",729,14,24,15.44,16.98,2,0,0.697,111.179,113.649
"730",730,14,25,20.29,30.44,4,1,0.134,114.75,116.651
"731",731,14,26,21.18,24.36,5,0,0.869,120.423,123.058
"732",732,14,27,17.34,19.95,4,0,0.5,124.176,126.446
"733",733,14,28,17.48,19.23,3,0,0.368,127.58,129.716
"734",734,14,29,12.58,13.21,2,0,0.219,130.817,132.803
"735",735,14,30,23.74,26.11,4,0,2.665,134.754,139.193
"736",736,14,31,15.31,20.66,4,1,0.156,141.312,143.231
"737",737,14,32,17.86,26.79,3,1,0.666,146.985,149.422
"738",738,14,33,17.21,25.81,2,1,0.446,151.189,153.409
"739",739,14,34,23.04,26.5,2,1,0.403,154.61,156.78
"740",740,14,35,12.36,12.98,6,0,0.717,158.248,160.734
"741",741,14,36,28.73,35.91,6,1,0.204,162.719,164.688
"742",742,14,37,35.68,37.46,2,0,0.779,168.793,171.346
"743",743,14,38,22.46,24.7,1,1,0.31,173.047,175.115
"744",744,14,39,24.34,25.56,1,1,0.591,176.301,178.654
"745",745,14,40,17.18,23.19,1,1,0.344,181.523,183.642
"746",746,14,41,24.71,37.06,5,1,0.604,184.944,187.313
"747",747,14,42,31.19,46.78,1,1,0.4,190.1,192.269
"748",748,14,43,24.7,27.17,2,1,0.704,194.804,197.275
"749",749,14,44,21.3,22.36,4,0,0.243,200.761,202.781
"750",750,14,45,17.56,18.44,6,0,0.453,206.751,208.97
"751",751,14,46,22,25.3,1,1,0.563,211.656,213.993
"752",752,14,47,18.52,27.78,4,1,0.054,215.294,217.113
"753",753,14,48,20.19,27.26,5,1,0.548,218.664,220.984
"754",754,14,49,20.5,30.75,2,1,0.141,222.351,224.254
"755",755,14,50,18.63,25.15,2,1,0.285,225.438,227.491
"756",756,14,51,19.88,22.87,2,1,0.186,231.378,233.33
"757",757,14,52,27.99,30.79,3,0,0.81,235.649,238.236
"758",758,14,53,32.92,41.15,1,1,0.465,239.987,242.224
"759",759,14,54,20.34,25.43,5,1,1.821,243.775,247.363
"760",760,14,55,21.57,23.73,6,0,0.806,248.597,251.167
"761",761,14,56,21.49,24.71,3,0,1.657,255.171,258.592
"762",762,14,57,18.26,21,6,0,1.314,261.378,264.465
"763",763,14,58,12.89,16.11,4,0,2.602,266.25,270.622
"764",764,14,59,17.97,22.47,6,0,0.535,273.125,275.428
"765",765,14,60,17.85,22.32,2,1,0.687,276.628,279.08
"766",766,14,61,27.16,31.24,5,0,0.602,281.049,283.42
"767",767,14,62,17.72,19.49,4,0,0.591,285.021,287.374
"768",768,14,63,20.11,22.12,5,0,0.856,290.276,292.896
"769",769,14,64,18.91,21.75,4,0,3.072,294.331,299.17
"770",770,14,65,17.66,18.54,5,0,0.138,301.289,303.191
"771",771,14,66,22.55,30.44,3,1,0.562,304.625,306.961
"772",772,14,67,13.82,17.27,3,0,2.191,309.965,313.919
"773",773,14,68,21.67,29.26,6,1,1.679,317.54,320.994
"774",774,14,69,15,15.75,3,0,0.793,322.179,324.747
"775",775,14,70,18.91,28.36,6,1,1.319,327.101,330.188
"776",776,14,71,24.32,32.83,4,1,1.585,332.323,335.677
"777",777,14,72,18.41,27.61,3,1,0.42,338.88,341.066
"778",778,15,1,22.51,25.88,4,0,1.428,0.351,3.555
"779",779,15,2,19.37,22.27,6,0,2.002,7.343,11.114
"780",780,15,3,23.99,32.39,2,1,0.776,12.315,14.868
"781",781,15,4,25.48,31.85,3,1,0.497,16.002,18.272
"782",782,15,5,24.78,26.02,6,0,1.324,19.99,23.077
"783",783,15,6,20.91,28.22,3,1,0.465,24.194,26.431
"784",784,15,7,21.75,23.93,2,0,1.09,27.882,30.735
"785",785,15,8,13.19,16.48,1,0,1.439,31.82,35.022
"786",786,15,9,23.44,25.79,3,0,0.211,37.593,39.579
"787",787,15,10,24.39,25.61,4,0,0.33,41.13,43.232
"788",788,15,11,17.58,21.97,4,0,3.623,45.285,50.674
"789",789,15,12,14.49,21.73,1,1,0.054,51.926,53.744
"790",790,15,13,22.02,27.53,2,1,0.141,55.078,56.98
"791",791,15,14,19.29,20.25,3,0,0.276,60.168,62.221
"792",792,15,15,24.88,27.37,1,0,3.201,64.155,69.128
"793",793,15,16,14.19,16.32,2,0,0.717,72.247,74.734
"794",794,15,17,16.35,17.99,6,0,0.607,76.485,78.855
"795",795,15,18,28.32,31.15,5,0,0.336,82.86,84.962
"796",796,15,19,23.26,31.4,1,1,0.303,88.516,90.585
"797",797,15,20,22.23,33.34,5,1,0.508,92.32,94.589
"798",798,15,21,16.01,16.81,1,0,0.295,95.941,98.01
"799",799,15,22,15.99,19.98,5,1,2.798,99.094,103.665
"800",800,15,23,27.4,41.09,3,1,0.658,105.017,107.435
"801",801,15,24,31.74,33.33,5,0,0.013,109.055,110.84
"802",802,15,25,19.29,21.21,4,0,0.646,114.461,116.881
"803",803,15,26,17.71,22.14,6,1,0.525,119.766,122.051
"804",804,15,27,25.99,27.29,2,0,0.185,125.723,127.675
"805",805,15,28,27.81,41.72,4,1,0.98,130.695,133.448
"806",806,15,29,18.87,21.71,3,0,0.127,135.501,137.403
"807",807,15,30,12.15,18.22,2,1,0.302,139.054,141.123
"808",808,15,31,10.8,16.2,6,1,0.294,143.726,145.796
"809",809,15,32,26.96,36.39,5,1,0.084,147.264,149.116
"810",810,15,33,23.84,27.42,1,0,0.429,151.718,153.921
"811",811,15,34,28.37,38.3,6,1,0.354,156.857,158.977
"812",812,15,35,16.54,19.02,5,0,1.632,161.596,165
"813",813,15,36,19.45,26.25,4,1,0.188,167.32,169.271
"814",814,15,37,24.06,32.48,5,1,0.486,173.91,176.162
"815",815,15,38,20.92,26.16,6,1,0.46,179.416,181.651
"816",816,15,39,11.3,16.95,1,1,0.15,184.038,185.956
"817",817,15,40,19.62,26.49,4,1,0.212,189.36,191.346
"818",818,15,41,14.85,17.08,6,0,1.114,195.05,197.936
"819",819,15,42,20.24,21.26,2,0,0.45,200.906,203.125
"820",820,15,43,9.9,12.38,3,0,1.261,204.694,207.731
"821",821,15,44,18.49,24.96,6,1,0.323,211.184,213.269
"822",822,15,45,11.1,13.87,5,0,0.428,217.191,219.393
"823",823,15,46,17.46,21.83,1,1,0.756,221.512,224.032
"824",824,15,47,29.37,44.06,3,1,0.277,226.551,228.603
"825",825,15,48,17.71,19.48,4,1,0.269,230.622,232.659
"826",826,15,49,17.41,19.15,1,0,0.619,235.544,237.931
"827",827,15,50,19.48,22.4,2,1,2.157,241.351,245.272
"828",828,15,51,23.78,24.97,6,0,0.457,248.842,251.062
"829",829,15,52,10.38,11.42,2,0,0.518,253.598,255.882
"830",830,15,53,18.11,24.45,3,1,0.008,257.235,259.003
"831",831,15,54,25.41,26.68,3,0,0.061,260.238,262.074
"832",832,15,55,14.47,19.53,1,1,0.237,263.759,265.761
"833",833,15,56,19.62,22.57,1,1,1.406,267.63,270.8
"834",834,15,57,29.8,31.29,1,0,0.952,273.403,276.122
"835",835,15,58,22.93,26.36,5,0,0.472,277.724,279.96
"836",836,15,59,19,28.5,5,1,0.145,281.194,283.114
"837",837,15,60,23.91,29.89,2,1,0.613,285.95,288.336
"838",838,15,61,22.88,30.89,2,1,0.477,291.606,293.859
"839",839,15,62,9.46,10.4,3,0,0.518,297.63,299.915
"840",840,15,63,14.13,16.25,3,0,0.332,302.352,304.454
"841",841,15,64,11.66,12.83,5,0,0.404,307.023,309.192
"842",842,15,65,17.13,19.69,4,0,0.806,311.077,313.648
"843",843,15,66,24.33,36.49,6,1,0.567,315.532,317.868
"844",844,15,67,10.59,11.65,6,0,0.622,320.838,323.224
"845",845,15,68,23.49,24.66,4,0,1.716,325.544,329.031
"846",846,15,69,25.01,37.51,4,1,0.462,331.35,333.586
"847",847,15,70,15.17,15.93,5,0,0.541,334.687,336.99
"848",848,15,71,22.03,27.54,4,1,0.612,340.743,343.13
"849",849,15,72,22.05,33.07,2,1,0.246,345.199,347.218
"850",850,16,3,19.02,21.87,3,0,1.505,15.994,19.265
"851",851,16,4,19.8,24.75,3,0,1.702,20.549,24.02
"852",852,16,6,33.14,38.11,4,0,3.634,33.097,38.503
"853",853,16,9,16.07,17.68,3,1,1.961,57.49,61.228
"854",854,16,10,18.22,24.59,1,1,1.836,63.664,67.268
"855",855,16,11,14.03,17.54,1,1,1.711,69.62,73.109
"856",856,16,12,18.11,20.82,2,0,3.154,75.377,80.299
"857",857,16,14,18.14,19.96,2,0,1.248,89.859,92.88
"858",858,16,15,10.85,12.47,6,0,3.32,94.331,99.421
"859",859,16,16,20.86,28.16,3,1,1.989,102.79,106.544
"860",860,16,17,29.85,34.33,5,0,3.138,107.945,112.852
"861",861,16,18,18.36,20.2,6,0,1.877,114.086,117.723
"862",862,16,19,19.74,21.72,5,0,3.757,120.343,125.867
"863",863,16,20,22.95,28.69,4,1,1.263,127.485,130.521
"864",864,16,21,21.45,32.18,5,1,1.976,132.907,136.645
"865",865,16,22,14.42,21.63,1,1,1.75,138.614,142.134
"866",866,16,23,18.1,19.91,1,1,3.942,143.302,149.008
"867",867,16,24,32.4,43.74,5,0,1.504,150.076,153.346
"868",868,16,26,21.39,32.09,6,1,2.776,164.675,169.214
"869",869,16,27,23.28,29.1,5,0,2.528,171.116,175.402
"870",870,16,28,29.54,39.88,6,1,3.9,178.24,183.914
"871",871,16,29,10.65,15.97,3,0,2.49,186.833,191.088
"872",872,16,30,23.99,27.59,1,1,0.973,193.006,195.742
"873",873,16,31,18.51,19.44,2,0,3.076,197.928,202.767
"874",874,16,32,16.58,17.41,3,1,1.446,204.469,207.689
"875",875,16,33,18.2,22.76,6,0,2.716,211.544,216.032
"876",876,16,34,22.3,23.42,1,1,1.135,217.116,220.02
"877",877,16,35,16.97,25.46,4,1,1.426,223.69,226.877
"878",878,16,36,27.43,28.8,5,0,2.681,228.379,232.834
"879",879,16,37,13.45,20.18,5,0,3.886,236.638,242.295
"880",880,16,38,25.08,26.33,5,0,3.071,244.596,249.435
"881",881,16,39,15.01,18.77,6,0,4.435,250.553,256.76
"882",882,16,40,20.58,27.78,6,1,1.335,259.23,262.333
"883",883,16,41,14.58,19.68,5,0,3.209,264.419,269.391
"884",884,16,42,23.48,31.7,1,1,1.177,272.611,275.565
"885",885,16,43,29.39,32.33,1,1,1.441,276.682,279.886
"886",886,16,44,26.5,30.47,1,1,1.479,282.405,285.658
"887",887,16,45,21.21,28.63,2,1,0.934,289.413,292.116
"888",888,16,46,18.27,20.1,5,0,2.492,294.352,298.606
"889",889,16,47,13.6,15.64,3,0,2.377,300.642,304.778
"890",890,16,48,12.82,13.47,2,0,2.712,308.467,312.956
"891",891,16,49,21.45,32.17,3,1,2.355,314.44,318.562
"892",892,16,50,24.87,27.36,4,0,2.189,320.447,324.402
"893",893,16,52,16.59,24.89,4,1,1.085,335.83,338.684
"894",894,16,53,21.92,27.4,3,1,0.709,339.918,342.387
"895",895,16,54,20.19,22.21,6,0,0.807,344.757,347.327
"896",896,16,55,17.59,21.99,2,1,0.926,349.061,351.748
"897",897,16,56,17.58,23.73,4,1,0.701,355.118,357.588
"898",898,16,57,17.82,18.71,1,1,1.779,359.04,362.594
"899",899,16,58,19.88,20.87,3,0,1.62,366.231,369.618
"900",900,16,59,14.05,17.56,5,0,2.079,372.605,376.459
"901",901,16,60,21.84,22.94,4,0,2.33,378.211,382.315
"902",902,16,61,16.66,22.49,3,1,1.402,384.602,387.771
"903",903,16,62,19.15,28.72,6,1,3.441,389.307,394.512
"904",904,16,63,16.96,17.8,6,0,1.523,398.416,401.703
"905",905,16,64,22.34,24.57,3,0,2.415,404.556,408.745
"906",906,16,65,21.25,23.38,2,0,3.564,410.647,415.986
"907",907,16,66,14.06,16.17,4,0,3.094,418.789,423.645
"908",908,16,67,23.77,27.33,5,0,3.392,424.779,429.935
"909",909,16,68,22.23,25.57,2,1,2.327,431.453,435.541
"910",910,16,69,17.49,26.24,1,1,0.83,437.894,440.497
"911",911,16,70,23.46,35.2,2,0,2.846,443.55,448.171
"912",912,16,71,22.55,28.18,1,1,1.099,450.041,452.91
"913",913,16,72,20.56,25.69,4,0,3.099,455.68,460.552
"914",914,17,1,18.13,22.66,2,0,1.561,0.146,3.483
"915",915,17,2,24.11,25.32,2,0,1.649,4.752,8.173
"916",916,17,3,27.12,29.83,6,0,1.29,12.193,15.246
"917",917,17,4,16.85,21.06,3,0,0.571,17.065,19.402
"918",918,17,5,29.41,33.82,5,0,0.531,22.471,24.774
"919",919,17,6,23.9,32.26,3,1,1.752,27.477,30.998
"920",920,17,7,15.22,17.5,2,0,0.047,32.732,34.552
"921",921,17,8,17.21,18.93,1,0,0.164,38.472,40.407
"922",922,17,9,11.99,16.19,6,0,1.18,42.927,45.88
"923",923,17,10,25.28,27.81,5,0,0.06,47.215,49.05
"924",924,17,11,21.78,32.68,4,1,3.236,50.735,55.742
"925",925,17,12,17.89,20.57,3,0,0.578,58.361,60.713
"926",926,17,13,21.3,24.5,6,0,0.643,63.416,65.836
"927",927,17,14,21.29,22.35,5,0,0.384,68.171,70.323
"928",928,17,15,13.3,17.96,5,0,1.135,73.06,75.963
"929",929,17,16,25.6,26.88,3,0,0.841,77.098,79.7
"930",930,17,17,16.84,25.26,1,1,2.58,80.752,85.107
"931",931,17,18,22.58,28.23,6,1,1.788,87.943,91.497
"932",932,17,19,27.3,28.67,6,0,1.061,92.598,95.435
"933",933,17,20,17.51,26.26,5,1,1.059,97.52,100.358
"934",934,17,21,22.44,28.05,5,1,0.987,102.226,104.979
"935",935,17,22,19.88,24.85,4,1,0.34,106.247,108.349
"936",936,17,23,18.61,25.12,1,1,0.323,111.736,113.822
"937",937,17,24,22.8,26.21,1,1,0.564,115.023,117.36
"938",938,17,25,24.95,27.44,2,0,0.317,120.462,122.548
"939",939,17,26,18.19,27.28,2,1,0.029,124.55,126.353
"940",940,17,27,20.72,21.76,4,0,0.462,128.605,130.841
"941",941,17,28,24.26,26.68,3,0,0.236,132.175,134.178
"942",942,17,29,21.14,24.31,4,0,0.571,135.896,138.232
"943",943,17,30,17.91,22.38,1,1,0.496,141.652,143.922
"944",944,17,31,16.64,24.97,6,0,0.357,145.023,147.142
"945",945,17,32,12.37,16.7,2,0,0.069,148.511,150.346
"946",946,17,33,6.58,8.89,4,0,0.303,152.364,154.433
"947",947,17,34,13.87,15.26,4,0,1.335,156.469,159.572
"948",948,17,35,25.12,37.68,3,1,0.748,161.775,164.294
"949",949,17,36,13.47,14.14,1,0,0.08,168.132,169.984
"950",950,17,37,30.88,33.97,4,1,1.373,173.254,176.391
"951",951,17,38,19.71,24.64,3,0,0.562,178.593,180.929
"952",952,17,39,26.71,36.05,2,1,0.711,183.198,185.668
"953",953,17,40,21.34,24.54,6,0,0.758,188.237,190.756
"954",954,17,41,11.1,13.87,2,0,0.379,193.177,195.329
"955",955,17,42,15.37,16.14,1,0,0.537,197.914,200.217
"956",956,17,43,18.2,20.93,2,0,0.227,202.937,204.939
"957",957,17,46,19.47,22.39,4,0,0.889,223.459,226.113
"958",958,17,49,23.11,31.21,4,0,0.261,244.015,246.051
"959",959,17,50,19.62,20.6,4,0,2.185,248.22,252.175
"960",960,17,51,17.98,24.27,3,1,1.475,255.128,258.364
"961",961,17,53,22.26,33.38,3,1,0.279,268.109,270.161
"962",962,17,54,20.52,27.7,6,1,1.858,273.898,277.518
"963",963,17,55,20.4,30.6,4,1,2.37,281.474,285.612
"964",964,17,56,22.41,28.01,4,1,3.795,287.48,293.036
"965",965,17,58,21.46,32.19,2,1,0.694,303.397,305.867
"966",966,17,60,10.03,11.53,5,0,4.401,319.282,325.456
"967",967,17,62,25.02,27.53,6,0,3.434,336.418,341.624
"968",968,17,63,17.05,19.61,1,1,3.746,343.058,348.564
"969",969,17,64,28.53,31.38,2,0,1.86,350.399,354.02
"970",970,17,65,23.61,35.41,5,1,0.828,356.423,359.025
"971",971,17,66,19.64,20.62,6,1,2.694,362.062,366.517
"972",972,17,67,11.35,11.91,5,0,0.428,369.887,372.091
"973",973,17,69,21.38,23.52,5,1,3.425,382.034,387.224
"974",974,17,70,18.29,27.44,6,1,3.488,388.508,393.765
"975",975,17,71,22.6,25.99,3,0,2.66,395.583,400.003
"976",976,17,72,23.62,31.89,5,1,2.574,401.422,405.76
"977",977,18,2,18.62,21.41,3,0,2.466,7.824,12.061
"978",978,18,3,13.16,15.14,6,0,0.795,14.681,17.25
"979",979,18,4,22.34,25.69,4,0,0.969,18.418,21.155
"980",980,18,5,30.1,37.63,4,0,2.123,22.84,26.728
"981",981,18,6,29.4,36.75,5,0,3.449,28.796,34.019
"982",982,18,7,23.87,29.84,3,0,1.383,35.436,38.59
"983",983,18,8,18.88,20.77,6,0,0.618,40.242,42.629
"984",984,18,9,14.13,16.24,2,0,1.201,45.131,48.101
"985",985,18,10,22.76,34.15,4,1,1.566,50.487,53.825
"986",986,18,11,16.18,17.79,4,0,0.638,55.526,57.928
"987",987,18,12,20.03,21.03,4,0,0.475,60.464,62.701
"988",988,18,13,14.24,14.95,1,0,0.683,66.721,69.174
"989",989,18,14,16.03,21.64,2,1,1.338,70.242,73.346
"990",990,18,15,16.83,18.51,5,0,1.099,76.649,79.519
"991",991,18,16,13.28,16.6,1,1,1.27,80.637,83.673
"992",992,18,17,11.7,15.8,6,1,2.519,84.725,89.012
"993",993,18,18,21.65,32.47,1,1,0.868,92.784,95.42
"994",994,18,19,19.81,26.74,3,1,1.834,97.355,100.959
"995",995,18,20,20.22,21.23,3,0,0.295,103.245,105.314
"996",996,18,21,20.48,27.65,4,1,2.021,106.431,110.22
"997",997,18,22,21.65,22.73,6,0,0.651,112.688,115.108
"998",998,18,23,16.63,20.79,2,1,1.506,117.962,121.231
"999",999,18,24,24.79,37.19,6,1,0.745,122.667,125.186
"1000",1000,18,25,25.42,26.69,2,0,0.652,127.088,129.508
"1001",1001,18,26,13.3,19.95,3,1,0.999,130.709,133.479
"1002",1002,18,27,17.27,25.9,5,1,0.707,134.696,137.166
"1003",1003,18,28,25.95,28.55,1,1,2.411,138.217,142.387
"1004",1004,18,29,20.74,28,5,1,0.961,145.074,147.811
"1005",1005,18,30,16.22,18.65,1,1,1.648,149.78,153.2
"1006",1006,18,31,22.42,28.03,6,0,2.9,155.953,160.625
"1007",1007,18,32,13.51,14.86,2,0,1.046,163.645,166.465
"1008",1008,18,33,36.43,54.64,2,1,0.859,169.601,172.221
"1009",1009,18,34,27.78,30.56,3,1,1.323,173.456,176.542
"1010",1010,18,35,14.79,17.01,5,0,1.09,177.61,180.463
"1011",1011,18,36,27.24,28.6,5,0,0.98,184.184,186.938
"1012",1012,18,37,24.86,26.1,4,0,0.812,190.224,192.81
"1013",1013,18,38,17.87,26.8,3,1,0.535,194.83,197.132
"1014",1014,18,39,19.75,22.71,1,1,1.005,199.367,202.138
"1015",1015,18,40,19.35,24.19,1,1,0.26,204.056,206.092
"1016",1016,18,41,13.53,14.2,1,0,0.806,209.095,211.665
"1017",1017,18,42,22.3,24.53,4,0,0.576,214.268,216.621
"1018",1018,18,43,30.37,45.55,2,1,0.201,218.722,220.692
"1019",1019,18,44,21.03,26.29,5,0,3.788,222.944,228.5
"1020",1020,18,45,14.74,22.11,1,1,0.733,229.935,232.438
"1021",1021,18,46,23.83,25.02,2,0,1.376,235.34,238.476
"1022",1022,18,47,22.46,28.07,2,1,0.403,241.664,243.833
"1023",1023,18,48,9.62,14.44,6,1,0.524,247.704,249.99
"1024",1024,18,49,21.76,23.94,1,0,0.812,251.392,253.978
"1025",1025,18,50,28.59,38.6,4,1,0.472,256.38,258.616
"1026",1026,18,51,27.57,31.71,2,1,0.369,260.218,262.354
"1027",1027,18,52,32.1,33.7,3,0,2.247,263.405,267.427
"1028",1028,18,53,15.14,17.41,6,0,0.784,269.428,271.982
"1029",1029,18,54,17.48,21.86,6,0,3.172,274,278.939
"1030",1030,18,55,22.11,29.84,6,1,0.552,282.46,284.779
"1031",1031,18,56,26.9,36.31,3,1,0.336,287.548,289.65
"1032",1032,18,57,25.74,38.62,5,1,0.841,291.786,294.389
"1033",1033,18,58,25.3,26.57,5,0,0.678,296.958,299.412
"1034",1034,18,59,22.9,28.63,4,0,2.785,302.331,306.887
"1035",1035,18,60,17.28,21.6,3,1,3.331,309.289,314.395
"1036",1036,18,61,16.3,17.93,6,0,0.564,317.632,319.967
"1037",1037,18,62,24.45,26.89,2,0,4.247,323.789,329.812
"1038",1038,18,63,13.86,18.71,2,1,0.692,331.864,334.317
"1039",1039,18,64,26.93,28.28,6,0,0.855,336.302,338.922
"1040",1040,18,65,23.1,34.64,4,1,0.41,340.674,342.86
"1041",1041,18,66,24.06,27.67,3,0,1.301,346.463,349.534
"1042",1042,18,67,23.41,26.93,5,0,1.128,353.188,356.091
"1043",1043,18,68,17.63,23.8,1,1,0.764,358.343,360.88
"1044",1044,18,69,20.19,22.21,3,0,0.64,364.116,366.518
"1045",1045,18,70,24.71,33.36,5,1,0.47,369.422,371.658
"1046",1046,18,71,22.95,26.39,4,0,0.928,374.627,377.331
"1047",1047,18,72,17.38,19.12,5,0,0.427,381.185,383.388
"1048",1048,19,2,24.96,33.7,6,1,0.516,10.212,12.499
"1049",1049,19,3,9.07,13.61,3,1,0.373,16.086,18.221
"1050",1050,19,4,18.23,24.61,1,1,0.036,20.791,22.593
"1051",1051,19,5,12.5,18.75,1,1,0.109,26.413,28.3
"1052",1052,19,6,18.39,24.83,4,1,1.245,30.935,33.956
"1053",1053,19,7,26.11,27.41,6,0,2.48,37.659,41.915
"1054",1054,19,8,19.8,22.77,2,1,0.81,44.617,47.203
"1055",1055,19,9,14.28,19.28,5,1,1.556,51.007,54.328
"1056",1056,19,10,13.27,14.6,6,0,2.025,56.33,60.117
"1057",1057,19,11,26.28,28.91,3,0,1.923,63.888,67.576
"1058",1058,19,12,24.06,26.46,1,1,1.436,69.128,72.331
"1059",1059,19,13,14.59,16.05,2,0,2.07,74.917,78.756
"1060",1060,19,14,15.8,17.38,4,1,0.476,80.791,83.043
"1061",1061,19,15,28.42,42.62,4,1,0.689,85.762,88.216
"1062",1062,19,16,20.77,21.81,4,0,1.165,90.718,93.655
"1063",1063,19,17,25.95,27.25,5,0,1.454,96.558,99.778
"1064",1064,19,18,15.79,19.74,1,1,0.983,101.196,103.95
"1065",1065,19,19,25.19,34.01,2,1,0.178,106.369,108.321
"1066",1066,19,20,18.88,23.59,5,1,0.882,110.473,113.126
"1067",1067,19,21,15.38,16.15,3,0,1.116,117.047,119.934
"1068",1068,19,22,11.89,16.05,3,1,0.436,123.487,125.689
"1069",1069,19,23,8.77,13.15,5,1,1.844,129.343,132.946
"1070",1070,19,24,19.85,29.78,6,1,0.701,135.334,137.802
"1071",1071,19,25,28.62,32.91,6,1,0.082,138.937,140.79
"1072",1072,19,26,27.82,34.77,2,1,0.439,144.828,147.03
"1073",1073,19,27,17.74,20.4,5,1,0.255,149.316,151.334
"1074",1074,19,28,17.63,22.04,3,1,0.532,153.287,155.589
"1075",1075,19,29,24.27,27.91,3,1,0.014,158.91,160.695
"1076",1076,19,30,15.66,18.01,1,1,0.189,163.782,165.734
"1077",1077,19,31,22.11,27.64,4,1,0.355,167.519,169.638
"1078",1078,19,32,14.59,15.32,1,1,0.276,171.591,173.642
"1079",1079,19,33,18.3,20.13,5,1,0.285,174.711,176.763
"1080",1080,19,34,17.26,25.9,2,1,0.317,179.749,181.835
"1081",1081,19,35,23.48,24.65,2,0,0.204,184.271,186.241
"1082",1082,19,36,22.16,27.7,6,1,0.346,188.593,190.712
"1083",1083,19,37,18.33,24.74,1,1,0.013,194.95,196.735
"1084",1084,19,38,19.83,24.79,1,1,0.215,199.972,201.957
"1085",1085,19,39,12.21,18.31,2,1,0.018,203.609,205.395
"1086",1086,19,40,17.76,26.64,6,1,0.246,207.597,209.616
"1087",1087,19,41,15.57,23.36,5,1,0.241,213.57,215.572
"1088",1088,19,42,23.51,25.86,3,1,0.489,217.458,219.71
"1089",1089,19,43,23.25,34.87,1,1,0.17,221.729,223.665
"1090",1090,19,44,22.45,30.3,2,1,0.02,227.135,228.921
"1091",1091,19,45,22.09,27.61,5,1,0.14,230.055,231.957
"1092",1092,19,46,24.93,31.16,2,1,0.269,235.31,237.347
"1093",1093,19,47,27.52,31.64,3,1,0.244,241.167,243.186
"1094",1094,19,48,21.13,22.19,5,0,1.371,245.071,248.209
"1095",1095,19,49,14.81,17.04,1,1,0.649,250.578,252.997
"1096",1096,19,50,12.88,19.32,3,1,0.526,256.901,259.186
"1097",1097,19,51,20,21,4,0,0.541,260.855,263.158
"1098",1098,19,52,26.85,36.25,3,1,0.273,264.226,266.261
"1099",1099,19,53,14.16,15.57,5,0,0.191,267.58,269.532
"1100",1100,19,54,15.68,18.03,6,1,0.221,270.566,272.551
"1101",1101,19,55,21.67,29.25,6,1,0.263,274.204,276.239
"1102",1102,19,56,14.69,16.16,6,0,1.046,279.276,282.096
"1103",1103,19,57,21.62,23.79,2,1,0.822,283.614,286.201
"1104",1104,19,58,18.84,20.73,1,1,0.943,287.284,289.988
"1105",1105,19,59,20.4,30.6,4,1,0.408,291.94,294.109
"1106",1106,19,60,18.99,19.94,3,0,0.33,295.561,297.663
"1107",1107,19,61,15.52,16.3,6,0,1.059,299.615,302.434
"1108",1108,19,62,23.57,27.11,5,1,0.285,306.406,308.458
"1109",1109,19,63,23.9,27.49,2,1,0.35,310.861,312.98
"1110",1110,19,64,18.21,22.76,4,1,0.309,315.95,318.035
"1111",1111,19,65,19.21,25.93,5,1,0.531,321.44,323.741
"1112",1112,19,66,24.27,25.49,2,0,0.828,325.543,328.147
"1113",1113,19,67,18.78,20.66,4,0,1.099,331.184,334.053
"1114",1114,19,68,25.88,27.17,1,0,1.124,336.639,339.525
"1115",1115,19,69,14.81,19.99,4,1,0.522,340.777,343.064
"1116",1116,19,70,10.07,12.58,3,1,1.558,346.901,350.221
"1117",1117,19,71,23.22,26.71,4,1,0.521,352.691,354.977
"1118",1118,19,72,17.07,21.34,6,1,0.227,356.128,358.13
"1119",1119,20,1,25.02,26.27,5,0,4.161,0.09,6.014
"1120",1120,20,2,21.48,32.23,6,1,3.377,9.584,14.739
"1121",1121,20,3,13.9,17.38,5,1,4.051,17.993,23.817
"1122",1122,20,4,21.09,28.47,4,1,2.708,26.135,30.608
"1123",1123,20,5,18.25,20.07,5,1,2.345,31.826,35.946
"1124",1124,20,6,23.12,31.21,6,1,2.106,39.083,42.954
"1125",1125,20,7,15.29,20.65,3,1,1.833,46.09,49.695
"1126",1126,20,8,25.3,37.96,2,1,1.587,53.248,56.603
"1127",1127,20,9,9.11,10.48,5,0,4.052,58.304,64.128
"1128",1128,20,10,22.23,33.34,3,1,3.444,65.696,70.902
"1129",1129,20,11,15.12,15.88,2,0,4.102,74.406,80.278
"1130",1130,20,12,20.56,25.69,4,1,4.402,81.33,87.504
"1131",1131,20,13,11.77,12.36,6,0,2.257,88.754,92.776
"1132",1132,20,14,21.39,23.52,1,1,3.441,94.211,99.416
"1133",1133,20,15,20.22,30.33,1,1,0.883,102.186,104.839
"1134",1134,20,16,28.26,32.5,2,1,0.824,107.108,109.694
"1135",1135,20,17,11.47,13.18,6,0,1.839,111.029,114.634
"1136",1136,20,18,17.65,22.07,2,1,1.342,118.437,121.54
"1137",1137,20,19,24.51,26.96,2,0,2.431,122.893,127.096
"1138",1138,20,20,28.49,35.61,6,1,1.172,130.768,133.705
"1139",1139,20,21,24.01,25.21,3,0,2.356,134.855,138.977
"1140",1140,20,22,20.06,25.08,3,1,1.199,141.396,144.366
"1141",1141,20,23,16.05,24.07,5,1,3.202,148.353,153.325
"1142",1142,20,24,22.96,26.4,1,1,1.137,155.194,158.098
"1143",1143,20,25,16.57,17.4,1,1,1.802,160.818,164.388
"1144",1144,20,26,23.91,32.28,5,1,2.826,165.889,170.478
"1145",1145,20,27,16.49,20.61,1,1,1.033,173.331,176.135
"1146",1146,20,28,26.75,28.09,4,0,2.771,179.521,184.06
"1147",1147,20,29,16.79,19.3,3,1,3.318,185.662,190.751
"1148",1148,20,30,12.71,17.16,2,1,0.909,194.671,197.341
"1149",1149,20,31,16.73,18.4,6,0,0.998,200.845,203.615
"1150",1150,20,32,18.92,21.76,4,1,2.917,207.135,211.824
"1151",1151,20,33,23.77,35.65,4,1,1.171,213.609,216.545
"1152",1152,20,34,18.16,24.52,1,1,0.595,217.713,220.083
"1153",1153,20,35,18.88,20.77,4,0,1.83,222.302,225.906
"1154",1154,20,36,19.01,20.91,3,0,1.28,229.644,232.697
"1155",1155,20,37,27.23,40.84,4,1,2.691,238.136,242.591
"1156",1156,20,38,19.3,26.06,3,1,2.459,246.529,250.75
"1157",1157,20,39,13.15,13.81,6,0,1.394,254.153,257.324
"1158",1158,20,40,14.78,18.47,5,1,1.622,259.894,263.281
"1159",1159,20,41,29.51,44.26,5,1,1.433,265.683,268.887
"1160",1160,20,42,22,24.2,2,0,2.941,271.623,276.328
"1161",1161,20,43,15.43,20.83,2,1,1.822,278.03,281.617
"1162",1162,20,44,20.64,25.8,2,1,2.619,283.936,288.325
"1163",1163,20,45,19.88,26.84,6,1,1.804,290.728,294.298
"1164",1164,20,46,26.66,35.99,5,1,2.459,295.633,299.855
"1165",1165,20,47,27.53,31.65,4,1,1.066,301.105,303.942
"1166",1166,20,48,13.24,19.85,6,1,1.382,307.046,310.199
"1167",1167,20,49,19.84,29.76,2,1,0.94,312.352,315.054
"1168",1168,20,50,15.14,17.41,3,1,2.512,317.34,321.629
"1169",1169,20,52,16.31,24.47,1,1,1.436,332.423,335.628
"1170",1170,20,53,19.22,20.18,4,0,1.333,338.631,341.734
"1171",1171,20,54,25.71,34.7,4,1,1.869,343.319,346.957
"1172",1172,20,55,25.75,32.19,6,1,1.223,348.141,351.127
"1173",1173,20,56,13.45,16.81,4,1,3.436,353.864,359.07
"1174",1174,20,57,11.43,12.57,3,0,2.255,361.572,365.594
"1175",1175,20,58,14.42,16.58,2,1,2.115,368.513,372.401
"1176",1176,20,59,25.08,27.59,5,0,3.685,373.519,378.974
"1177",1177,20,60,11.79,12.97,4,0,1.959,380.661,384.381
"1178",1178,20,61,10.23,10.75,5,0,0.94,386.783,389.486
"1179",1179,20,62,28.01,42.02,3,1,1.183,390.805,393.758
"1180",1180,20,63,18.48,23.1,1,1,0.938,395.993,398.696
"1181",1181,20,64,27.82,31.99,1,1,0.911,401.917,404.603
"1182",1182,20,65,10.58,11.11,1,0,2.985,407.69,412.445
"1183",1183,20,66,26.17,27.48,3,0,2.846,415.581,420.204
"1184",1184,20,67,21.7,23.87,6,0,0.997,421.622,424.392
"1185",1185,20,68,28.11,35.14,3,1,3.626,425.809,431.199
"1186",1186,20,69,20.64,21.67,2,0,2.157,432.367,436.288
"1187",1187,20,70,28.83,31.71,1,1,1.947,438.057,441.777
"1188",1188,20,71,27.27,31.36,5,1,2.504,444.564,448.835
"1189",1189,20,72,17.63,23.8,1,1,1.322,452.489,455.577
"1190",1190,21,1,23.54,31.78,1,1,4.417,0.074,6.264
"1191",1191,21,3,19.64,20.63,5,0,1.698,15.657,19.128
"1192",1192,21,4,22.52,33.78,6,0,2.393,22.682,26.835
"1193",1193,21,5,14.32,15.04,3,0,1.521,28.187,31.475
"1194",1194,21,6,19.27,22.17,1,0,1.948,34.328,38.049
"1195",1195,21,7,21.4,23.54,5,0,2.278,40.301,44.356
"1196",1196,21,8,16.77,17.61,4,0,1.014,46.942,49.728
"1197",1197,21,9,18.22,20.04,6,0,1.615,53.149,56.535
"1198",1198,21,10,20.9,24.04,6,0,1.037,59.255,62.058
"1199",1199,21,11,18.29,22.87,4,0,0.89,65.362,68.015
"1200",1200,21,12,9.14,13.71,1,1,2.726,71.869,76.358
"1201",1201,21,13,23.8,29.75,1,1,1.767,79.444,82.981
"1202",1202,21,14,22.38,27.98,3,0,0.749,85.334,87.853
"1203",1203,21,15,27.49,31.61,3,0,1.585,91.291,94.644
"1204",1204,21,16,17.7,19.47,2,0,1.936,97.931,101.636
"1205",1205,21,17,21.35,28.82,5,0,1.908,104.055,107.726
"1206",1206,21,18,24.72,25.95,1,0,0.662,111.245,113.683
"1207",1207,21,19,24.31,30.39,5,0,0.723,114.8,117.286
"1208",1208,21,20,13.93,15.32,3,0,0.971,119.872,122.608
"1209",1209,21,21,15.86,18.24,4,0,0.97,126.513,129.249
"1210",1210,21,22,25.79,34.81,3,1,3.222,131.718,136.708
"1211",1211,21,23,15.25,22.88,2,1,3.376,138.643,143.782
"1212",1212,21,24,21.76,25.02,2,0,1.621,146.134,149.522
"1213",1213,21,25,16.43,18.07,4,0,0.397,150.606,152.776
"1214",1214,21,26,18.13,24.48,6,0,1.008,154.044,156.812
"1215",1215,21,27,20.34,21.36,6,0,0.228,158.064,160.067
"1216",1216,21,28,19.42,24.27,6,0,1.142,163.253,166.156
"1217",1217,21,29,15.05,20.31,2,0,2.264,168.643,172.681
"1218",1218,21,30,26.03,39.05,4,1,2.101,174.399,178.27
"1219",1219,21,31,21.92,32.88,3,1,2.784,180.139,184.694
"1220",1220,21,32,15.39,16.15,2,0,0.539,186.912,189.216
"1221",1221,21,33,22.76,30.73,4,0,3.151,191.301,196.224
"1222",1222,21,34,29.18,32.1,1,0,0.541,199.127,201.428
"1223",1223,21,35,9.1,10.46,5,0,0.629,203.631,206.034
"1224",1224,21,36,11.09,16.64,5,0,0.373,208.103,210.239
"1225",1225,21,37,21.42,24.63,4,0,1.759,215.628,219.149
"1226",1226,21,38,15.28,16.81,1,0,0.241,221.051,223.052
"1227",1227,21,39,13.86,20.79,4,0,1.158,224.238,227.158
"1228",1228,21,40,26.7,28.04,6,0,0.34,229.159,231.261
"1229",1229,21,41,28.64,38.67,1,1,0.87,234.949,237.585
"1230",1230,21,42,16.79,22.66,5,0,0.485,240.055,242.307
"1231",1231,21,43,18.72,19.65,4,0,0.807,244.076,246.645
"1232",1232,21,44,23.34,31.51,3,0,2.444,248.063,252.268
"1233",1233,21,45,15.17,18.96,3,0,0.364,254.304,256.438
"1234",1234,21,46,19.03,19.99,5,0,0.299,259.393,261.462
"1235",1235,21,47,20.48,30.73,6,0,1.193,263.147,266.101
"1236",1236,21,48,25.64,38.47,2,1,1.567,270.021,273.359
"1237",1237,21,49,27.05,29.76,2,0,0.216,276.012,277.998
"1238",1238,21,50,16.29,20.36,6,0,0.46,281.217,283.435
"1239",1239,21,51,21.45,26.81,2,0,1.608,285.188,288.558
"1240",1240,21,52,23.39,29.23,4,0,0.764,291.311,293.848
"1241",1241,21,53,21.46,32.19,5,0,2.016,295.115,298.904
"1242",1242,21,54,18.87,25.48,2,0,3.179,301.873,306.811
"1243",1243,21,55,25.43,34.33,4,0,2.998,309.582,314.354
"1244",1244,21,56,21.77,27.22,5,0,1.131,317.256,320.16
"1245",1245,21,57,20.15,21.16,2,0,4.341,323.63,329.737
"1246",1246,21,58,26.25,28.88,4,0,0.897,332.106,334.777
"1247",1247,21,59,13.47,15.49,3,0,0.829,337.062,339.665
"1248",1248,21,61,8.61,9.47,3,0,1.101,351.494,354.364
"1249",1249,21,62,30.05,31.56,3,0,0.692,357.935,360.387
"1250",1250,21,63,13.95,14.65,1,0,0.298,361.705,363.775
"1251",1251,21,64,21.4,24.6,2,0,0.274,366.945,368.98
"1252",1252,21,65,23.43,25.77,6,0,0.403,370.048,372.217
"1253",1253,21,66,17.66,23.85,6,0,0.342,375.654,377.757
"1254",1254,21,67,16.44,18.08,5,0,0.253,379.926,381.945
"1255",1255,21,68,24.41,36.61,3,1,1.849,383.931,387.551
"1256",1256,21,69,12.81,14.74,5,0,0.402,389.37,391.539
"1257",1257,21,70,20.52,25.65,1,1,1.022,392.573,395.359
"1258",1258,21,71,18.43,21.19,6,0,0.486,396.678,398.93
"1259",1259,21,72,10.08,11.6,1,0,0.035,402.217,404.018
"1260",1260,22,1,14.37,15.81,5,0,1.466,0.033,3.27
"1261",1261,22,3,22.06,23.16,5,0,0.968,13.531,16.268
"1262",1262,22,4,19.02,19.97,1,0,1.004,18.52,21.29
"1263",1263,22,5,18.13,27.2,6,1,0.707,24.36,26.83
"1264",1264,22,6,21.55,24.78,6,0,0.88,28.164,30.816
"1265",1265,22,7,15.04,17.29,1,0,0.674,32.385,34.822
"1266",1266,22,8,17.7,20.35,3,0,0.906,36.657,39.327
"1267",1267,22,9,25.19,31.49,1,1,1.441,40.595,43.798
"1268",1268,22,10,22.06,33.09,5,0,1.45,45.65,48.871
"1269",1269,22,11,32.49,43.86,3,1,1.215,52.141,55.127
"1270",1270,22,12,17.4,19.14,1,1,1.689,56.946,60.399
"1271",1271,22,13,9.37,12.65,6,0,1.471,61.485,64.721
"1272",1272,22,14,29.31,43.97,1,1,1.644,66.039,69.46
"1273",1273,22,15,20.35,22.38,3,0,1.49,71.561,74.816
"1274",1274,22,16,19.77,29.66,4,1,1.291,78.169,81.222
"1275",1275,22,17,17.93,24.21,4,1,0.699,84.776,87.246
"1276",1276,22,18,26.5,35.77,2,1,0.379,89.833,91.984
"1277",1277,22,19,23.79,29.73,6,1,0.474,93.753,95.989
"1278",1278,22,20,20.73,25.91,3,1,1.034,97.658,100.461
"1279",1279,22,21,25.33,37.99,3,1,1.002,102.73,105.498
"1280",1280,22,22,23.13,24.29,4,0,2.236,107.184,111.19
"1281",1281,22,23,16.19,17.8,2,0,1.352,114.476,117.596
"1282",1282,22,24,22.68,24.95,4,0,1.664,119.548,122.986
"1283",1283,22,25,23.51,29.38,4,0,1.05,125.322,128.142
"1284",1284,22,26,12.51,14.39,5,0,0.996,130.144,132.913
"1285",1285,22,27,26.26,39.39,2,1,0.831,136.301,138.902
"1286",1286,22,28,24.84,26.09,2,1,2.987,142.641,147.396
"1287",1287,22,29,15.48,20.89,1,1,0.467,151.033,153.269
"1288",1288,22,30,22.36,30.19,5,1,0.121,154.787,156.673
"1289",1289,22,31,12.16,12.77,6,0,1.57,160.594,163.931
"1290",1290,22,32,24.45,30.56,5,1,2.343,166.901,171.004
"1291",1291,22,33,28.91,36.14,2,1,0.868,172.64,175.277
"1292",1292,22,34,25.47,28.02,6,1,2.077,177.863,181.7
"1293",1293,22,35,24.76,25.99,3,0,2.529,183.235,187.541
"1294",1294,22,36,15.26,17.55,4,1,0.661,189.359,191.794
"1295",1295,22,37,23.37,26.88,5,0,1.34,196.583,199.687
"1296",1296,22,38,13.92,20.89,4,1,0.048,202.34,204.158
"1297",1297,22,39,25.6,28.16,1,1,0.313,206.21,208.297
"1298",1298,22,40,19.46,29.19,3,1,0.431,209.965,212.168
"1299",1299,22,41,18.33,22.91,5,1,0.339,214.553,216.655
"1300",1300,22,42,17.83,24.07,1,1,2.305,218.675,222.745
"1301",1301,22,43,28.87,30.31,1,1,1.087,224.197,227.05
"1302",1302,22,44,24.51,25.73,6,0,1.498,228.785,232.056
"1303",1303,22,45,22.31,24.54,4,0,1.396,235.776,238.947
"1304",1304,22,46,27.62,34.52,1,1,1.583,241.149,244.503
"1305",1305,22,47,16.25,24.37,2,1,3.345,245.587,250.692
"1306",1306,22,48,24.8,33.48,2,1,0.753,253.395,255.915
"1307",1307,22,49,13.38,20.07,1,1,0.009,257.467,259.235
"1308",1308,22,50,19.39,24.23,6,1,0.158,262.405,264.325
"1309",1309,22,51,24.08,30.1,3,1,0.539,265.976,268.279
"1310",1310,22,52,18.13,22.67,4,1,2.47,271.55,275.788
"1311",1311,22,53,20.61,21.64,2,0,0.824,276.955,279.541
"1312",1312,22,54,19.63,26.5,3,1,0.641,280.826,283.229
"1313",1313,22,55,17.63,23.8,4,1,0.954,286.466,289.185
"1314",1314,22,56,26.68,28.01,3,1,0.375,291.405,293.54
"1315",1315,22,57,15.82,18.2,2,1,0.835,294.625,297.228
"1316",1316,22,59,17.62,20.26,1,1,0.549,307.806,310.125
"1317",1317,22,60,20.45,22.49,2,1,1.279,312.261,315.314
"1318",1318,22,61,19.51,22.44,6,1,0.571,316.449,318.785
"1319",1319,22,62,11.35,11.91,4,0,1.112,320.788,323.673
"1320",1320,22,63,25,28.75,4,0,1.421,327.695,330.881
"1321",1321,22,64,16.68,18.35,6,0,0.876,332.616,335.253
"1322",1322,22,65,20.37,30.56,5,1,1.304,337.155,340.224
"1323",1323,22,66,19.02,25.68,6,1,0.945,343.195,345.915
"1324",1324,22,67,18.29,19.2,5,0,1.668,347.984,351.42
"1325",1325,22,68,17.08,18.79,3,0,1.171,352.689,355.625
"1326",1326,22,69,13.53,18.27,5,0,1.004,358.495,361.265
"1327",1327,22,70,24.46,36.69,6,1,1.177,362.466,365.419
"1328",1328,22,71,17.38,21.72,2,1,2.116,367.888,371.777
"1329",1329,22,72,18.44,21.21,3,1,3.177,374.963,379.902
"1330",1330,23,1,20.01,22.01,3,0,2.619,0.08,4.469
"1331",1331,23,2,24.27,27.91,6,0,2.014,6.604,10.391
"1332",1332,23,3,27.29,34.11,3,0,1.003,11.976,14.746
"1333",1333,23,4,18.93,20.83,6,0,1.175,18.116,21.053
"1334",1334,23,5,24.44,25.66,5,0,1.509,24.79,28.079
"1335",1335,23,6,16.64,22.47,6,0,0.881,29.796,32.449
"1336",1336,23,7,14.71,18.39,6,0,1.008,36.22,38.99
"1337",1337,23,8,13.23,14.55,1,1,2.295,40.141,44.211
"1338",1338,23,9,26.87,33.59,2,0,2.906,47.482,52.154
"1339",1339,23,10,17.58,21.97,5,0,0.779,53.672,56.226
"1340",1340,23,12,15.28,22.91,2,1,0.832,66.787,69.39
"1341",1341,23,13,24.66,28.35,3,1,0.691,70.825,73.276
"1342",1342,23,14,16.62,18.28,5,0,0.738,74.745,77.248
"1343",1343,23,15,20.91,24.05,1,1,0.621,78.966,81.353
"1344",1344,23,16,23.39,29.24,1,1,0.895,82.437,85.107
"1345",1345,23,17,21,28.34,1,1,1.153,86.475,89.395
"1346",1346,23,18,18.92,23.65,4,0,1.419,91.881,95.068
"1347",1347,23,19,14.32,16.46,4,0,0.763,96.169,98.706
"1348",1348,23,20,24.52,28.2,2,1,0.607,99.957,102.326
"1349",1349,23,21,20.46,22.51,4,0,0.738,103.611,106.113
"1350",1350,23,22,19.3,26.06,4,0,1.051,109.801,112.621
"1351",1351,23,23,29.3,39.55,5,0,1.054,115.373,118.194
"1352",1352,23,24,24.26,36.39,6,0,1.099,120.529,123.4
"1353",1353,23,25,21.13,23.25,2,1,0.895,126.269,128.939
"1354",1354,23,26,20.11,21.12,4,0,1.15,130.974,133.895
"1355",1355,23,27,23.43,24.6,1,1,0.635,135.913,138.316
"1356",1356,23,28,14.49,15.22,6,0,1.331,140.785,143.889
"1357",1357,23,29,25.47,34.38,2,1,0.866,146.441,149.078
"1358",1358,23,30,23.27,24.43,3,0,0.487,150.596,152.848
"1359",1359,23,31,20.09,30.14,1,1,0.497,154.851,157.12
"1360",1360,23,32,18.71,21.52,5,0,0.394,159.506,161.675
"1361",1361,23,33,17.06,23.02,3,0,0.384,164.611,166.764
"1362",1362,23,34,24.53,36.79,3,1,0.756,168.232,170.751
"1363",1363,23,35,22.67,23.81,2,0,1.58,171.92,175.273
"1364",1364,23,36,21.71,32.57,5,0,1.153,177.476,180.396
"1365",1365,23,37,15.35,19.18,3,0,1.63,182.998,186.402
"1366",1366,23,38,22.02,24.22,3,1,0.894,187.887,190.539
"1367",1367,23,39,18.07,24.4,5,0,0.719,191.725,194.211
"1368",1368,23,40,23.41,26.92,3,0,0.52,197.564,199.851
"1369",1369,23,41,18.21,22.77,1,1,0.042,201.97,203.789
"1370",1370,23,42,25.13,26.39,4,0,0.638,207.558,209.961
"1371",1371,23,43,19.67,22.63,5,0,0.302,212.982,215.051
"1372",1372,23,44,12.52,13.78,2,0,1.569,216.235,219.572
"1373",1373,23,45,21.59,29.15,1,1,0.209,222.458,224.445
"1374",1374,23,46,23.75,32.06,3,0,0.408,226.396,228.565
"1375",1375,23,47,18.41,21.17,2,0,0.381,231.519,233.671
"1376",1376,23,48,12.5,18.76,1,1,1.345,235.906,239.027
"1377",1377,23,49,25.11,33.9,6,0,0.027,240.928,242.73
"1378",1378,23,50,25.61,32.01,5,0,0.597,244.383,246.753
"1379",1379,23,51,23.38,29.22,6,0,0.977,249.187,251.923
"1380",1380,23,52,23.68,35.52,3,1,0.029,254.31,256.112
"1381",1381,23,53,18.66,19.59,1,1,0.123,258.281,260.167
"1382",1382,23,54,21.58,22.66,2,0,0.379,261.968,264.121
"1383",1383,23,55,22.66,33.99,4,0,0.805,266.406,268.977
"1384",1384,23,56,12.83,14.75,4,0,0.338,270.161,272.263
"1385",1385,23,57,9.71,11.17,1,1,0.124,273.648,275.534
"1386",1386,23,58,22.73,34.1,6,1,0.131,277.769,279.672
"1387",1387,23,59,26.42,27.74,5,0,0.364,283.375,285.511
"1388",1388,23,60,19.21,21.13,1,1,0.566,288.565,290.9
"1389",1389,23,61,12.34,16.65,2,1,2.052,292.919,296.741
"1390",1390,23,62,23.79,26.16,4,0,0.169,298.259,300.193
"1391",1391,23,63,24.32,25.54,3,1,0.288,303.147,305.199
"1392",1392,23,64,11.2,12.88,6,0,0.063,307.252,309.087
"1393",1393,23,65,18.5,20.35,5,0,0.363,312.458,314.594
"1394",1394,23,66,14.67,18.34,2,0,0.899,316.512,319.182
"1395",1395,23,67,12.64,13.9,6,0,0.741,320.766,323.27
"1396",1396,23,68,9.5,12.82,4,0,0.577,326.707,329.06
"1397",1397,23,69,20.77,21.81,6,0,0.232,332.179,334.182
"1398",1398,23,70,20.9,31.35,2,0,0.147,336.584,338.503
"1399",1399,23,71,10.66,13.32,4,0,0.228,339.704,341.707
"1400",1400,23,72,19.81,29.72,5,1,0.571,344.977,347.314
"1401",1401,24,2,24.56,28.25,2,0,0.548,9.893,12.213
"1402",1402,24,3,10.44,12.01,5,0,1.195,13.864,16.835
"1403",1403,24,4,18.71,23.38,2,0,2.313,18.002,22.09
"1404",1404,24,5,16.13,18.55,1,0,2.376,23.458,27.613
"1405",1405,24,6,19.41,22.32,3,0,1.284,30.399,33.453
"1406",1406,24,7,31.01,32.56,6,0,1.076,36.055,38.908
"1407",1407,24,8,24.68,37.02,5,1,2.544,41.395,45.717
"1408",1408,24,9,22.81,28.51,4,1,1.495,47.868,51.139
"1409",1409,24,10,24.83,27.32,1,0,0.602,54.426,56.796
"1410",1410,24,11,18.42,20.26,6,0,2.507,60.065,64.337
"1411",1411,24,12,20.25,25.31,1,1,0.808,65.988,68.558
"1412",1412,24,13,13.95,18.84,1,1,0.546,70.777,73.096
"1413",1413,24,14,25.17,33.99,6,1,2.423,74.565,78.752
"1414",1414,24,16,13.73,15.1,3,0,2.846,89.381,94.002
"1415",1415,24,17,19.62,29.42,4,1,1.54,97.64,100.943
"1416",1416,24,18,17.28,19.01,4,0,2.582,102.646,107.001
"1417",1417,24,19,19.7,26.59,5,0,4.3,109.887,115.961
"1418",1418,24,20,22.25,33.38,3,1,0.793,119.715,122.285
"1419",1419,24,21,19.99,29.98,6,1,2.482,124.186,128.441
"1420",1420,24,22,10.96,12.61,6,0,1.478,131.894,135.149
"1421",1421,24,23,14.28,21.42,1,1,0.511,137.718,140.003
"1422",1422,24,24,20.82,26.03,5,1,1.387,141.304,144.459
"1423",1423,24,25,16.2,21.88,2,1,2.199,146.477,150.448
"1424",1424,24,26,10.89,11.98,2,0,1.052,152.583,155.403
"1425",1425,24,27,33.33,38.33,4,0,3.019,159.425,164.214
"1426",1426,24,28,25.47,34.39,3,1,0.888,166.115,168.768
"1427",1427,24,29,23.33,29.16,3,1,1.762,170.937,174.475
"1428",1428,24,30,20.46,21.48,2,0,0.803,177.528,180.097
"1429",1429,24,31,18.98,19.93,1,0,2.192,181.7,185.653
"1430",1430,24,32,19.79,20.78,5,0,0.948,187.239,189.959
"1431",1431,24,33,18.18,19.08,4,0,0.276,192.344,194.379
"1432",1432,24,34,12.74,17.2,4,0,1.469,198.151,201.388
"1433",1433,24,35,20.32,22.36,5,0,0.655,202.973,205.391
"1434",1434,24,36,18.61,19.54,3,0,1.292,208.495,211.549
"1435",1435,24,37,15.62,17.96,1,0,1.731,215.353,218.857
"1436",1436,24,38,17.63,19.39,4,0,1.17,220.225,223.163
"1437",1437,24,39,22.08,33.11,4,1,0.741,225.047,227.55
"1438",1438,24,40,18.08,20.79,4,1,0.541,231.271,233.574
"1439",1439,24,41,19.85,20.84,1,0,1.152,235.459,238.379
"1440",1440,24,42,13.66,15.7,2,0,3.008,239.763,244.535
"1441",1441,24,43,15.5,23.25,6,1,1.956,246.671,250.393
"1442",1442,24,44,19.74,29.61,3,1,0.31,253.045,255.13
"1443",1443,24,45,23.13,25.44,2,0,0.864,256.715,259.351
"1444",1444,24,46,22.64,28.3,2,1,1.027,262.488,265.291
"1445",1445,24,47,21.74,32.61,2,1,0.497,266.459,268.729
"1446",1446,24,48,18.14,19.05,5,0,2.176,271.315,275.252
"1447",1447,24,49,20.59,25.74,4,1,0.625,278.69,281.075
"1448",1448,24,50,13.79,17.24,1,1,0.947,284.112,286.833
"1449",1449,24,51,27.23,28.59,6,1,0.49,289.401,291.653
"1450",1450,24,52,21.23,24.41,5,1,0.565,293.607,295.942
"1451",1451,24,53,29.78,40.2,6,1,0.507,297.36,299.63
"1452",1452,24,54,21.05,26.31,5,1,0.715,302.817,305.303
"1453",1453,24,55,17.42,23.52,4,1,0.138,307.755,309.657
"1454",1454,24,56,18.94,25.56,1,1,0.294,311.91,313.979
"1455",1455,24,57,19.84,24.8,6,1,0.06,316.631,318.467
"1456",1456,24,58,17.48,18.35,3,1,0.276,319.951,321.987
"1457",1457,24,59,31.48,42.5,3,1,0.474,324.473,326.71
"1458",1458,24,60,11.68,12.85,6,1,0.101,329.279,331.147
"1459",1459,24,61,20.03,25.03,3,1,0.141,333.4,335.302
"1460",1460,24,62,13.83,14.52,4,1,0.151,336.637,338.556
"1461",1461,24,63,24.05,27.66,6,1,0.292,339.807,341.859
"1462",1462,24,64,18.21,20.03,5,1,0.942,343.494,346.198
"1463",1463,24,65,16.54,24.81,5,1,0.382,347.549,349.702
"1464",1464,24,66,15.01,16.51,3,1,0.528,351.02,353.323
"1465",1465,24,67,14.35,15.07,2,1,0.503,354.74,357.009
"1466",1466,24,68,27.03,40.54,1,1,0.255,359.829,361.848
"1467",1467,24,69,23.15,26.62,3,1,0.418,365.769,367.956
"1468",1468,24,70,17.82,19.61,1,1,0.475,371.225,373.46
"1469",1469,24,71,16.28,21.98,5,1,0.422,375.43,377.616
"1470",1470,24,72,24.74,33.4,2,1,0.305,381.587,383.655
"1471",1471,25,1,18.07,18.98,2,0,1.853,0.103,3.724
"1472",1472,25,2,19.39,26.18,1,0,3.018,5.159,9.948
"1473",1473,25,3,20.52,23.6,6,0,1.124,12.567,15.453
"1474",1474,25,4,22.6,28.25,5,0,1.231,18.524,21.527
"1475",1475,25,5,19.72,22.68,5,0,0.623,22.612,24.998
"1476",1476,25,6,28.54,38.53,6,0,1.32,28.468,31.555
"1477",1477,25,7,23.05,34.57,4,0,1.147,32.856,35.776
"1478",1478,25,8,22.79,25.07,2,0,0.595,39.096,41.466
"1479",1479,25,9,21.28,28.73,3,0,0.366,43.885,46.021
"1480",1480,25,10,27.87,41.81,5,0,1.814,47.989,51.576
"1481",1481,25,11,21.95,27.43,2,0,0.361,54.747,56.883
"1482",1482,25,12,21.04,31.56,1,0,1.343,59.252,62.372
"1483",1483,25,13,26.89,29.58,6,0,1.095,64.324,67.194
"1484",1484,25,14,15.69,21.18,5,0,0.43,68.662,70.864
"1485",1485,25,15,11.05,12.71,2,0,1.063,73.117,75.954
"1486",1486,25,16,17.25,25.87,2,0,0.54,77.088,79.391
"1487",1487,25,17,24.78,26.02,4,0,0.524,81.36,83.646
"1488",1488,25,18,16.51,18.16,1,0,0.136,85.931,87.833
"1489",1489,25,19,24.46,28.13,3,0,0.275,89.952,91.988
"1490",1490,25,20,17.33,21.66,4,0,2.392,93.139,97.294
"1491",1491,25,21,15.12,22.68,6,0,0.134,98.829,100.731
"1492",1492,25,22,21.98,24.18,4,0,0.881,103.267,105.921
"1493",1493,25,23,18.07,19.88,5,0,0.155,107.505,109.423
"1494",1494,25,24,23.13,28.91,1,0,0.536,112.427,114.731
"1495",1495,25,25,19.8,26.73,2,0,1.398,115.981,119.151
"1496",1496,25,26,27.74,29.12,3,0,0.982,121.654,124.407
"1497",1497,25,27,21.46,26.82,6,0,2.436,126.56,130.764
"1498",1498,25,28,19.56,22.5,4,0,0.697,134.635,137.105
"1499",1499,25,29,19.37,20.34,1,0,0.539,138.656,140.959
"1500",1500,25,30,22.85,24,5,0,0.144,142.828,144.747
"1501",1501,25,31,23.32,24.48,6,0,0.321,148.451,150.536
"1502",1502,25,32,25.71,29.56,1,0,0.606,153.989,156.359
"1503",1503,25,33,21.13,26.41,3,0,0.707,157.777,160.247
"1504",1504,25,34,22.53,33.79,3,0,0.715,163.2,165.687
"1505",1505,25,35,21.29,23.42,3,0,0.795,168.272,170.842
"1506",1506,25,36,23.99,32.38,4,0,1.129,172.01,174.913
"1507",1507,25,37,27.35,36.92,6,0,1.731,179.568,183.071
"1508",1508,25,38,8.23,12.34,2,0,1.267,186.009,189.045
"1509",1509,25,39,22.68,24.95,5,0,2.346,191.114,195.235
"1510",1510,25,40,17.04,17.89,5,0,1.183,197.22,200.174
"1511",1511,25,41,16.48,24.72,4,0,0.867,202.376,205.013
"1512",1512,25,42,18.37,22.96,5,0,4.116,208.767,214.656
"1513",1513,25,43,29.71,34.17,2,0,1.013,216.358,219.146
"1514",1514,25,44,18.46,19.38,1,0,0.467,222.849,225.085
"1515",1515,25,45,25.23,34.05,5,0,1.256,227.387,230.408
"1516",1516,25,46,24.19,26.61,2,0,0.558,231.926,234.244
"1517",1517,25,47,25.39,31.73,1,0,0.799,238.132,240.703
"1518",1518,25,48,17.2,25.8,6,0,1.962,242.17,245.908
"1519",1519,25,49,20.06,21.07,6,0,0.002,247.209,248.978
"1520",1520,25,50,23.57,27.1,1,0,0.044,252.231,254.05
"1521",1521,25,51,18.93,25.56,3,0,0.167,255.869,257.804
"1522",1522,25,53,13.1,13.76,2,0,0.717,267.982,270.468
"1523",1523,25,54,22.85,28.56,6,0,0.761,272.771,275.308
"1524",1524,25,55,19.77,20.76,3,0,0.207,276.508,278.476
"1525",1525,25,56,26.5,29.15,3,0,1.138,281.697,284.601
"1526",1526,25,57,21.39,28.88,4,0,0.569,287.754,290.09
"1527",1527,25,58,24.86,33.56,2,0,1.183,292.276,295.229
"1528",1528,25,59,14.3,16.44,5,0,0.162,296.697,298.633
"1529",1529,25,60,25.55,29.38,4,0,0.407,301.853,304.021
"1530",1530,25,61,11.8,12.98,4,0,0.353,306.074,308.193
"1531",1531,25,62,26.03,35.14,1,0,1.573,309.478,312.814
"1532",1532,25,63,12.12,18.18,1,0,1.133,315.718,318.622
"1533",1533,25,64,24.4,28.06,3,0,0.211,320.656,322.642
"1534",1534,25,65,27.28,30.01,6,0,0.344,324.211,326.329
"1535",1535,25,66,22.67,28.34,2,0,0.277,327.815,329.866
"1536",1536,25,67,19.13,20.09,4,0,0.391,333.221,335.373
"1537",1537,25,68,11.63,17.44,3,0,0.122,338.043,339.929
"1538",1538,25,69,11.27,14.09,4,0,0.316,341.279,343.365
"1539",1539,25,70,21,26.25,3,0,2.468,344.783,349.021
"1540",1540,25,71,21.04,23.14,1,0,0.451,353.009,355.228
"1541",1541,25,72,20.81,23.93,6,0,0.015,356.981,358.766
"1542",1542,27,3,15.64,19.55,3,1,0.205,16.991,18.959
"1543",1543,27,4,20.27,27.37,4,1,1.114,20.577,23.465
"1544",1544,27,5,25.56,29.39,1,1,1.622,25.133,28.521
"1545",1545,27,6,16.52,18.18,1,1,2.683,32.024,36.478
"1546",1546,27,7,22.94,28.68,6,1,1.979,38.081,41.835
"1547",1547,27,8,10.81,13.51,4,1,4.136,43.603,49.509
"1548",1548,27,9,16.27,18.7,6,0,2.356,53.448,57.568
"1549",1549,27,10,32.59,37.48,3,1,1.119,58.837,61.724
"1550",1550,27,11,14.87,17.1,4,1,2.68,65.044,69.499
"1551",1551,27,12,12.65,18.97,6,1,0.748,72.185,74.704
"1552",1552,27,13,18.28,21.02,2,1,3.644,75.855,81.262
"1553",1553,27,14,15.76,23.63,3,1,1.192,84.331,87.285
"1554",1554,27,15,30.59,45.89,5,1,0.949,88.486,91.206
"1555",1555,27,16,13.83,14.52,6,0,0.835,92.257,94.86
"1556",1556,27,17,14.06,18.98,5,1,1.797,95.911,99.482
"1557",1557,27,18,24.82,27.3,6,0,1.743,100.9,104.403
"1558",1558,27,19,10.78,11.86,2,0,0.896,106.539,109.208
"1559",1559,27,20,13.11,19.67,2,1,0.803,110.376,112.947
"1560",1560,27,21,21.97,23.07,5,0,1.705,115.283,118.754
"1561",1561,27,22,20.43,21.45,2,0,2.072,120.187,124.025
"1562",1562,27,23,18.14,22.67,1,1,1.145,125.611,128.53
"1563",1563,27,24,21.22,31.83,4,1,0.869,129.798,132.435
"1564",1564,27,25,15.17,17.45,5,1,2.653,134.687,139.109
"1565",1565,27,26,21.78,29.41,2,1,0.529,141.795,144.098
"1566",1566,27,27,11.66,12.25,3,0,1.025,146.667,149.454
"1567",1567,27,28,17.84,22.3,2,1,0.835,152.257,154.86
"1568",1568,27,29,12.99,17.54,3,1,0.967,157.029,159.765
"1569",1569,27,30,27.39,30.13,4,0,1.677,162.935,166.371
"1570",1570,27,31,15.76,16.55,1,0,1.187,170.193,173.147
"1571",1571,27,32,26.36,32.95,5,1,1.546,175.482,178.802
"1572",1572,27,33,17.5,23.63,1,1,1.413,180.655,183.841
"1573",1573,27,34,15.78,17.36,3,0,2.5,187.679,191.95
"1574",1574,27,35,28.29,42.44,1,1,1.006,193.919,196.688
"1575",1575,27,36,23.4,31.59,6,1,3.005,199.592,204.364
"1576",1576,27,37,10.93,12.02,6,0,2.797,209.103,213.675
"1577",1577,27,38,18.43,20.27,2,0,1.27,214.741,217.78
"1578",1578,27,39,27.36,41.04,3,1,0.243,220.081,222.083
"1579",1579,27,40,25.81,29.68,6,1,1.467,225.153,228.391
"1580",1580,27,41,20.55,30.83,4,0,1.406,231.511,234.681
"1581",1581,27,42,25.98,38.97,6,1,0.27,235.949,237.985
"1582",1582,27,43,19.59,24.49,2,1,0.401,239.019,241.188
"1583",1583,27,44,19.55,20.53,6,0,0.362,243.474,245.61
"1584",1584,27,45,26.73,29.4,5,0,2.266,248.545,252.584
"1585",1585,27,46,20.36,27.49,4,1,0.579,254.937,257.288
"1586",1586,27,47,16.43,17.26,1,0,0.894,258.958,261.627
"1587",1587,27,48,27.61,41.42,1,1,0.094,264.814,266.683
"1588",1588,27,49,27.28,36.83,5,1,1.175,267.901,270.838
"1589",1589,27,50,17.74,18.63,2,0,1.529,272.722,276.027
"1590",1590,27,51,23.75,27.31,5,1,2.223,277.461,281.45
"1591",1591,27,52,19.94,26.92,2,1,1.042,283.017,285.821
"1592",1592,27,53,28.48,38.45,1,1,0.476,289.408,291.643
"1593",1593,27,54,20.23,30.35,2,1,0.417,295.514,297.701
"1594",1594,27,55,18.97,23.71,6,1,1.265,301.554,304.592
"1595",1595,27,56,21.6,27,4,1,0.392,306.46,308.613
"1596",1596,27,57,20.26,21.27,3,0,1.767,309.997,313.534
"1597",1597,27,58,23.69,24.88,5,0,4.291,317.489,323.545
"1598",1598,27,59,14.78,16.26,4,1,1.799,327.533,331.104
"1599",1599,27,60,33.75,37.12,1,1,1.238,332.973,335.976
"1600",1600,27,61,25.87,28.45,3,1,1.399,338.044,341.215
"1601",1601,27,62,22.59,25.98,2,1,3.538,342.85,348.156
"1602",1602,27,63,16.84,21.05,1,1,0.951,349.324,352.043
"1603",1603,27,64,24.31,30.39,3,1,1.498,354.513,357.783
"1604",1604,27,65,21.64,32.45,5,1,0.517,358.935,361.221
"1605",1605,27,66,30.41,41.06,3,1,0.077,364.807,366.66
"1606",1606,27,67,13.37,18.05,6,1,1.501,369.846,373.118
"1607",1607,27,68,15.59,17.93,1,1,0.793,375.619,378.173
"1608",1608,27,69,20.22,21.23,4,1,1.43,380.342,383.545
"1609",1609,27,70,20.99,24.14,4,1,0.649,384.763,387.181
"1610",1610,27,71,16.71,19.21,3,1,0.559,388.901,391.219
"1611",1611,27,72,21.83,27.28,5,1,0.467,394.457,396.693
"1612",1612,28,1,20.55,23.63,1,0,3.038,0.036,4.842
"1613",1613,28,2,20.01,30.02,4,0,2.209,6.76,10.748
"1614",1614,28,3,20.47,22.51,5,0,1.092,12.399,15.252
"1615",1615,28,4,14.08,21.12,2,0,1.47,17.773,21.009
"1616",1616,28,5,15.12,18.9,1,0,1.62,22.678,26.066
"1617",1617,28,6,25.65,34.63,6,0,1.59,27.734,31.087
"1618",1618,28,7,16.93,22.85,5,0,0.519,33.156,35.442
"1619",1619,28,8,17.8,26.7,1,1,1.02,37.327,40.115
"1620",1620,28,9,21.54,23.69,6,0,0.557,41.983,44.301
"1621",1621,28,10,15.38,20.76,3,0,1.035,46.304,49.107
"1622",1622,28,11,28.7,30.14,6,0,0.47,52.677,54.913
"1623",1623,28,12,12.2,12.82,3,0,0.318,58.317,60.402
"1624",1624,28,13,27.91,37.68,1,1,1.076,62.088,64.925
"1625",1625,28,14,12.57,14.45,4,0,0.589,66.343,68.696
"1626",1626,28,15,24.74,28.45,3,0,0.793,72.266,74.836
"1627",1627,28,16,16.28,20.35,4,0,0.587,76.888,79.241
"1628",1628,28,17,23.73,29.66,5,0,1.069,81.142,83.979
"1629",1629,28,18,30.1,33.11,3,0,0.493,86.782,89.051
"1630",1630,28,19,17.09,19.65,6,0,0.327,91.821,93.923
"1631",1631,28,20,26.2,32.75,3,0,0.134,96.342,98.245
"1632",1632,28,21,14.35,17.93,6,0,0.09,99.729,101.581
"1633",1633,28,22,26.66,27.99,4,0,0.014,103.717,105.503
"1634",1634,28,23,21.65,23.81,2,0,0.029,108.055,109.858
"1635",1635,28,24,26.87,28.21,1,0,0.594,113.545,115.914
"1636",1636,28,25,21.04,24.2,2,0,0.421,119.702,121.887
"1637",1637,28,26,20.43,22.47,1,0,0.696,124.507,126.976
"1638",1638,28,27,15.99,21.59,4,0,0.155,128.529,130.446
"1639",1639,28,28,16.59,24.89,6,0,0.077,132.767,134.618
"1640",1640,28,29,22.49,23.61,2,0,1.032,136.971,139.774
"1641",1641,28,30,19.99,26.98,2,0,1.15,142.893,145.813
"1642",1642,28,31,21.43,32.15,3,0,0.022,147.749,149.534
"1643",1643,28,32,26.57,30.56,5,0,0.158,151.837,153.755
"1644",1644,28,33,20.92,31.39,5,0,0.296,156.108,158.177
"1645",1645,28,34,14.78,16.26,4,0,0.283,159.913,161.965
"1646",1646,28,35,16.63,17.46,5,0,0.09,163.834,165.686
"1647",1647,28,36,23.54,29.43,2,0,0.141,167.07,168.973
"1648",1648,28,37,24.21,26.63,1,0,2.073,173.194,177.031
"1649",1649,28,38,18.6,20.46,6,0,0.44,180.635,182.837
"1650",1650,28,39,17.04,18.75,3,0,0.672,186.276,188.71
"1651",1651,28,40,16.43,17.25,6,0,0.386,190.329,192.482
"1652",1652,28,41,26.23,27.54,5,0,0.361,196.002,198.139
"1653",1653,28,42,24.6,33.21,5,0,0.012,199.24,201.025
"1654",1654,28,43,25.6,32.01,5,0,0.635,204.912,207.316
"1655",1655,28,44,22.17,29.92,2,0,0.28,211.203,213.255
"1656",1656,28,45,22.77,28.47,6,0,0.645,217.126,219.545
"1657",1657,28,46,23.34,25.67,4,0,0.475,223.249,225.484
"1658",1658,28,47,17.89,26.83,2,1,0.469,228.038,230.273
"1659",1659,28,48,25.36,34.24,6,0,1.018,233.777,236.564
"1660",1660,28,49,21.38,22.45,1,0,0.984,238.9,241.651
"1661",1661,28,50,22.21,33.31,3,0,0.696,244.923,247.393
"1662",1662,28,51,12.82,16.02,3,0,0.254,248.461,250.48
"1663",1663,28,52,27.88,32.06,4,0,0.493,252.215,254.483
"1664",1664,28,53,13.52,15.55,6,0,0.391,255.902,258.054
"1665",1665,28,54,24.24,26.67,2,0,0.053,260.207,262.025
"1666",1666,28,55,23.69,31.98,4,0,0.511,263.461,265.745
"1667",1667,28,56,26.51,39.77,6,0,0.308,266.848,268.917
"1668",1668,28,57,9.35,9.82,4,0,0.675,271.552,273.989
"1669",1669,28,58,22.99,28.73,1,1,1.336,275.123,278.227
"1670",1670,28,59,13.07,13.72,2,0,0.279,281.764,283.816
"1671",1671,28,60,23.15,26.62,1,0,0.266,285.034,287.07
"1672",1672,28,61,19.65,22.59,2,0,0.658,289.122,291.541
"1673",1673,28,62,24.56,25.79,3,0,0.306,292.609,294.678
"1674",1674,28,63,13.4,15.41,3,0,0.622,297.197,299.584
"1675",1675,28,64,18.15,27.22,4,0,0.13,301.77,303.671
"1676",1676,28,65,22.38,33.57,5,0,0.168,305.323,307.259
"1677",1677,28,66,20.19,23.21,5,0,0.174,308.493,310.428
"1678",1678,28,67,19.64,29.46,1,1,1.562,314.049,317.387
"1679",1679,28,68,17.58,21.98,4,0,0.096,321.324,323.193
"1680",1680,28,69,20.21,25.26,2,0,0.369,325.178,327.314
"1681",1681,28,70,5.26,5.78,5,0,0.533,328.582,330.885
"1682",1682,28,71,24.99,33.74,1,1,1.114,333.921,336.808
"1683",1683,28,72,21.33,28.8,3,0,1.371,338.96,342.097
"1684",1684,29,2,12,12.61,1,0,0.7,9.469,11.938
"1685",1685,29,3,15.42,16.19,4,0,0.717,12.99,15.475
"1686",1686,29,4,20.98,31.46,2,1,0.757,18.462,20.981
"1687",1687,29,5,27.21,29.93,4,0,0.645,22.55,24.969
"1688",1688,29,6,23.83,35.74,1,1,0.797,26.638,29.207
"1689",1689,29,7,16.77,18.45,6,0,0.275,32.144,34.178
"1690",1690,29,8,32.11,40.14,6,0,1.437,36.982,40.186
"1691",1691,29,9,27.15,31.22,4,0,0.202,42.706,44.673
"1692",1692,29,10,22.55,33.82,6,1,1.851,47.744,51.366
"1693",1693,29,11,28.98,33.33,2,0,0.263,53.1,55.136
"1694",1694,29,12,17.58,26.36,3,0,0.917,56.854,59.541
"1695",1695,29,13,17.47,18.34,2,0,0.508,61.759,64.03
"1696",1696,29,14,5.87,7.34,5,0,0.357,66.014,68.133
"1697",1697,29,15,16.49,18.13,5,0,0.208,70.42,72.389
"1698",1698,29,16,23.73,26.1,1,0,0.972,74.591,77.327
"1699",1699,29,17,27.07,28.42,5,0,0.275,79.313,81.348
"1700",1700,29,18,15.7,21.2,4,0,0.657,82.483,84.902
"1701",1701,29,19,20.09,21.1,3,0,0.158,87.838,89.757
"1702",1702,29,20,27.74,37.45,6,1,1.043,91.376,94.196
"1703",1703,29,21,22.45,30.31,1,1,2.113,95.731,99.619
"1704",1704,29,22,18.52,21.3,1,0,0.415,102.772,104.957
"1705",1705,29,23,22.06,29.78,5,0,1.773,109.078,112.616
"1706",1706,29,24,19.29,21.22,2,0,0.387,114.168,116.32
"1707",1707,29,25,18.92,23.65,3,0,2.431,119.924,124.129
"1708",1708,29,26,18.5,23.12,4,0,3.061,127.566,132.386
"1709",1709,29,27,25.56,38.34,4,1,1.279,134.924,137.977
"1710",1710,29,28,9.56,14.34,5,0,0.816,140.58,143.167
"1711",1711,29,29,20.23,22.26,3,0,0.949,146.103,148.822
"1712",1712,29,30,18.86,21.69,5,0,0.495,149.957,152.226
"1713",1713,29,31,13.13,15.1,3,0,0.454,154.862,157.082
"1714",1714,29,32,16.08,20.09,2,0,1.363,158.817,161.954
"1715",1715,29,33,22.79,28.49,1,1,0.84,163.555,166.157
"1716",1716,29,34,21.58,29.14,2,1,2.828,169.495,174.083
"1717",1717,29,35,22.46,23.59,6,0,0.744,177.988,180.507
"1718",1718,29,36,22.48,25.85,6,0,0.507,182.961,185.23
"1719",1719,29,37,25.04,27.55,1,0,1.434,189.601,192.805
"1720",1720,29,38,16.68,20.85,5,0,0.519,194.557,196.842
"1721",1721,29,39,20.25,23.29,5,0,0.253,199.495,201.514
"1722",1722,29,40,22.13,23.24,6,0,0.182,204.701,206.653
"1723",1723,29,41,22.89,25.18,5,0,0.187,207.904,209.857
"1724",1724,29,42,15.1,20.38,5,0,0.345,213.594,215.713
"1725",1725,29,43,19.55,22.49,4,0,0.408,217.699,219.866
"1726",1726,29,44,24.9,37.34,2,1,0.629,222.654,225.056
"1727",1727,29,45,24.55,28.24,2,0,0.753,227.626,230.146
"1728",1728,29,46,21.04,31.55,6,1,0.824,233.699,236.286
"1729",1729,29,47,16.13,21.78,1,1,0.819,237.337,239.923
"1730",1730,29,48,18.24,27.36,3,1,0.571,241.992,244.328
"1731",1731,29,49,14.53,19.62,6,0,0.861,245.662,248.3
"1732",1732,29,50,21.34,23.48,6,0,0.955,250.184,252.904
"1733",1733,29,51,26.79,28.13,3,0,0.406,255.773,257.944
"1734",1734,29,52,14.52,15.97,2,0,0.759,260.028,262.549
"1735",1735,29,53,22.36,25.71,6,0,0.22,264.6,266.586
"1736",1736,29,54,15.48,16.25,5,0,0.165,268.054,269.989
"1737",1737,29,55,27.18,33.98,6,0,0.577,273.81,276.163
"1738",1738,29,56,13.73,20.59,1,1,0.715,277.448,279.934
"1739",1739,29,57,22.38,25.73,3,0,0.107,282.57,284.439
"1740",1740,29,58,13.01,13.66,2,0,0.358,286.941,289.06
"1741",1741,29,59,13.22,14.54,3,0,0.364,292.431,294.566
"1742",1742,29,60,13.9,20.86,4,0,0.558,298.437,300.756
"1743",1743,29,61,21.52,32.28,5,1,1.428,303.159,306.364
"1744",1744,29,62,18.85,19.79,1,0,0.192,309.7,311.652
"1745",1745,29,63,21.73,27.16,1,1,0.638,312.837,315.24
"1746",1746,29,64,21.02,22.07,4,0,0.228,317.809,319.811
"1747",1747,29,65,16.56,19.04,1,1,4.028,322.247,328.037
"1748",1748,29,66,27.13,29.84,4,0,0.416,331.124,333.309
"1749",1749,29,67,20.22,27.3,3,0,0.662,335.078,337.514
"1750",1750,29,68,25.34,34.21,2,1,1.061,339.583,342.419
"1751",1751,29,69,25.31,31.64,4,1,2.041,346.091,349.894
"1752",1752,29,70,22.74,28.43,2,1,1.36,351.596,354.717
"1753",1753,29,71,17.78,22.23,3,0,0.69,358.338,360.789
"1754",1754,29,72,20.59,27.79,4,0,0.85,364.594,367.214
"1755",1755,30,1,18.68,19.61,6,0,1.653,0.062,3.481
"1756",1756,30,2,21.86,25.14,6,0,1.515,5.718,9.005
"1757",1757,30,3,17.45,21.81,5,0,2.361,10.29,14.428
"1758",1758,30,4,13.01,14.32,3,0,2.534,17.013,21.318
"1759",1759,30,5,17.41,21.77,3,0,1.422,23.437,26.625
"1760",1760,30,6,13.37,20.05,2,1,3.768,28.859,34.399
"1761",1761,30,7,22.11,24.32,6,0,2.238,36.101,40.105
"1762",1762,30,8,19.26,20.22,2,0,1.707,42.424,45.895
"1763",1763,30,9,22.74,28.42,1,1,1.383,48.732,51.885
"1764",1764,30,10,12.67,13.94,2,0,1.101,54.254,57.124
"1765",1765,30,11,34.09,46.03,1,1,1.603,58.81,62.18
"1766",1766,30,12,17.69,18.57,5,0,0.568,63.532,65.867
"1767",1767,30,13,13.43,20.15,5,0,1.02,69.271,72.057
"1768",1768,30,14,15.42,20.82,5,0,1.953,73.242,76.963
"1769",1769,30,15,17.37,26.05,1,1,1.015,80.501,83.286
"1770",1770,30,16,14.85,16.33,1,1,1.197,86.406,89.377
"1771",1771,30,17,20.47,23.54,4,0,1.548,93.031,96.351
"1772",1772,30,18,17.29,19.02,5,0,1.115,99.888,102.775
"1773",1773,30,19,21.63,29.2,4,0,3.077,105.11,109.95
"1774",1774,30,20,20.65,25.81,6,0,1.506,111.618,114.888
"1775",1775,30,21,31.27,42.21,3,0,0.977,118.091,120.826
"1776",1776,30,22,17.28,21.6,4,0,0.885,123.614,126.268
"1777",1777,30,23,22.17,23.28,1,1,0.618,127.585,129.971
"1778",1778,30,24,24.93,26.18,4,0,1.592,132.891,136.245
"1779",1779,30,25,26,39,3,1,1.839,137.78,141.384
"1780",1780,30,26,18.44,24.89,6,0,0.939,143.92,146.623
"1781",1781,30,27,18.42,24.86,2,1,1.596,149.009,152.38
"1782",1782,30,28,22.82,26.24,1,1,1.09,153.697,156.551
"1783",1783,30,29,21.06,31.59,6,0,0.326,158.653,160.756
"1784",1784,30,30,16.09,18.5,3,0,0.816,163.876,166.461
"1785",1785,30,32,18.1,19.01,3,0,0.29,177.474,179.527
"1786",1786,30,33,29.45,33.87,2,1,0.451,183.129,185.35
"1787",1787,30,34,21.29,24.48,5,0,0.211,188.552,190.538
"1788",1788,30,35,26.29,32.87,2,1,1.366,191.789,194.926
"1789",1789,30,36,23.78,26.16,4,0,0.366,196.461,198.597
"1790",1790,30,37,13.42,20.13,3,0,0.979,201.017,203.769
"1791",1791,30,38,25.18,26.44,3,0,1.193,205.938,208.891
"1792",1792,30,39,17.67,20.32,3,0,0.348,212.913,215.033
"1793",1793,30,40,15.93,17.52,5,0,0.52,217.651,219.936
"1794",1794,30,41,19.27,21.19,2,0,0.01,221.305,223.091
"1795",1795,30,42,28.28,31.11,3,0,0.37,224.409,226.545
"1796",1796,30,43,26.72,36.08,2,1,0.544,228.563,230.882
"1797",1797,30,44,17.92,26.88,1,1,0.268,234.336,236.373
"1798",1798,30,45,10.66,11.73,6,0,0.405,237.607,239.776
"1799",1799,30,46,23.55,25.9,4,0,1.54,242.329,245.632
"1800",1800,30,47,12.42,18.62,4,0,0.353,248.419,250.538
"1801",1801,30,48,33.03,41.29,3,0,0.647,253.925,256.344
"1802",1802,30,49,19.81,26.74,6,0,0.488,259.164,261.416
"1803",1803,30,50,14.99,22.48,2,1,1.061,263.551,266.37
"1804",1804,30,51,20.47,23.54,6,0,0.323,267.656,269.743
"1805",1805,30,52,17.43,20.04,4,0,1.739,272.328,275.832
"1806",1806,30,53,15.68,19.6,5,0,0.132,279.32,281.222
"1807",1807,30,54,20.18,23.21,2,1,1.127,284.108,287.011
"1808",1808,30,55,19.07,20.02,4,0,0.401,288.747,290.916
"1809",1809,30,56,28.56,42.85,5,0,0.841,292.851,295.454
"1810",1810,30,57,13.98,17.47,1,1,0.401,297.907,300.075
"1811",1811,30,58,21.81,23.99,1,1,0.808,303.195,305.765
"1812",1812,30,59,17.15,19.72,1,1,0.984,307.868,310.621
"1813",1813,30,60,22.99,28.73,2,1,2.757,313.023,317.545
"1814",1814,30,61,25.7,32.12,6,0,0.671,320.164,322.601
"1815",1815,30,62,12.01,12.61,5,0,1.647,324.469,327.889
"1816",1816,30,63,21.72,22.81,1,1,0.427,330.192,332.394
"1817",1817,30,64,16.34,20.43,4,0,0.074,334.898,336.732
"1818",1818,30,65,15.73,16.52,2,1,1.995,337.801,341.571
"1819",1819,30,66,20.49,27.66,4,1,1.206,345.125,348.095
"1820",1820,30,67,23.36,35.04,6,0,1.855,349.197,352.817
"1821",1821,30,68,14.58,19.68,1,1,0.81,355.553,358.139
"1822",1822,30,69,9.24,9.7,6,0,0.794,360.059,362.61
"1823",1823,30,70,12.31,14.16,5,0,0.321,363.963,366.049
"1824",1824,30,71,22.34,30.16,5,0,0.603,367.4,369.769
"1825",1825,30,72,29.33,39.59,3,0,0.492,371.855,374.107
"1826",1826,31,1,15.36,20.73,2,0,2.875,0.312,4.951
"1827",1827,31,2,19.72,21.69,2,0,0.666,6.503,8.938
"1828",1828,31,3,22.26,30.05,5,0,0.224,11.107,13.092
"1829",1829,31,4,20.77,22.85,4,0,0.459,15.312,17.548
"1830",1830,31,5,20.01,30.01,2,0,1.537,20.418,23.721
"1831",1831,31,6,11.24,12.37,5,0,0.506,25.273,27.543
"1832",1832,31,7,27.1,29.81,3,0,0.082,30.346,32.197
"1833",1833,31,8,24.17,32.63,4,0,1.215,33.349,36.335
"1834",1834,31,9,15.15,18.93,4,0,0.675,38.704,41.141
"1835",1835,31,10,29.18,36.47,6,0,0.657,42.658,45.078
"1836",1836,31,11,23.4,24.57,2,0,0.48,46.379,48.632
"1837",1837,31,12,13.02,14.33,6,0,0.046,52.47,54.289
"1838",1838,31,13,22.86,26.29,1,1,1.473,55.907,59.145
"1839",1839,31,14,20.48,25.6,3,0,0.048,62.347,64.167
"1840",1840,31,15,21.99,24.19,1,1,1.581,67.87,71.224
"1841",1841,31,16,17.9,18.79,5,0,1.215,72.308,75.295
"1842",1842,31,17,25.67,34.66,6,0,0.443,76.68,78.899
"1843",1843,31,18,21.72,32.58,3,1,1.816,81.251,84.839
"1844",1844,31,19,24.9,28.63,2,0,1.769,87.658,91.196
"1845",1845,31,20,17.22,21.53,1,1,0.854,92.414,95.033
"1846",1846,31,21,18.6,19.53,4,0,0.48,97.42,99.671
"1847",1847,31,22,12.3,16.6,1,1,0.683,101.24,103.694
"1848",1848,31,23,9.01,9.46,3,0,0.834,105.545,108.148
"1849",1849,31,24,19.2,28.81,5,0,0.885,109.182,111.835
"1850",1850,31,25,16.02,16.82,1,0,0.735,114.572,117.074
"1851",1851,31,26,10.34,10.86,6,0,0.045,120.695,122.514
"1852",1852,31,27,15.39,23.08,4,0,0.504,125.3,127.569
"1853",1853,31,28,21.67,32.5,1,1,0.981,128.654,131.407
"1854",1854,31,29,19.83,22.81,3,0,0.838,134.694,137.297
"1855",1855,31,30,17.74,22.18,5,0,1.227,139.049,142.034
"1856",1856,31,31,10.62,13.27,2,0,1.659,145.288,148.71
"1857",1857,31,32,15.97,23.96,6,0,0.873,151.946,154.581
"1858",1858,31,33,23.1,26.57,4,0,0.941,155.967,158.67
"1859",1859,31,34,23.38,26.88,5,0,0.944,162.108,164.828
"1860",1860,31,35,14.68,19.81,3,0,0.778,166.545,169.099
"1861",1861,31,36,32.82,37.75,6,0,0.7,170.783,173.253
"1862",1862,31,37,22.31,27.89,3,0,2.074,178.025,181.862
"1863",1863,31,38,16.33,20.42,4,0,0.055,182.964,184.782
"1864",1864,31,39,23.24,34.85,4,0,3.656,187.469,192.892
"1865",1865,31,40,12.58,14.46,1,0,0.488,195.595,197.846
"1866",1866,31,41,24.65,36.97,3,1,0.696,199.732,202.201
"1867",1867,31,42,21.99,25.29,5,0,0.109,206.022,207.891
"1868",1868,31,43,23.96,26.35,3,0,0.368,210.628,212.763
"1869",1869,31,44,17.69,18.58,1,1,2.071,214.949,218.786
"1870",1870,31,45,16.53,20.66,6,0,1.988,219.871,223.625
"1871",1871,31,46,13.54,14.21,2,0,1.381,226.278,229.432
"1872",1872,31,48,9.66,10.15,4,0,0.06,239.159,240.995
