"","ID","DD_Trial","DD_Today","DD_Later","DD_Time","DD_Choice","DD_rt","DD_TrialStart","DD_TrialEnd"
"1","101",1,21.81,32.71,3,"Later",2.19,0.084,4.044
"2","101",2,8,8.4,1,"Now",1.599,6.786,10.161
"3","101",3,19.81,24.77,3,"Later",2.603,12.352,16.73
"4","101",4,15.86,23.79,2,"Later",1.96,18.803,22.53
"5","101",5,24.64,28.34,2,"Later",1.26,23.734,26.759
"6","101",6,16.98,21.23,6,"Later",3.084,28.046,32.892
"7","101",7,14.75,16.96,1,"Later",2.504,34.331,38.609
"8","101",8,19.41,29.11,6,"Later",1.33,41.585,44.676
"9","101",9,28.59,32.88,5,"Now",1.684,45.847,49.306
"10","101",10,24.7,37.05,5,"Later",0.729,50.41,52.899
"11","101",11,11.98,16.17,2,"Later",0.305,54.154,56.225
"12","101",12,18.84,19.78,4,"Now",0.44,58.467,60.672
"13","101",13,24.43,26.87,6,"Now",0.623,64.3,66.689
"14","101",14,10.76,12.38,6,"Now",0.4,68.211,70.399
"15","101",15,17.43,19.17,5,"Now",2.738,72.857,77.369
"16","101",16,14.73,16.94,4,"Later",0.748,80.279,82.801
"17","101",17,18.69,19.63,5,"Now",1.007,86.396,89.169
"18","101",18,22.65,30.58,6,"Later",1.672,90.307,93.766
"19","101",19,23.88,32.24,4,"Later",0.614,95.037,97.426
"20","101",20,15.87,23.8,4,"Later",0.526,99.35,101.638
"21","101",21,20.5,30.74,1,"Later",0.119,103.06,104.948
"22","101",22,20.33,25.42,5,"Later",1.49,107.657,110.915
"23","101",23,13,17.55,5,"Later",0.908,113.055,115.729
"24","101",24,17.86,18.76,2,"Now",1.115,117,119.89
"25","101",25,22.02,23.12,3,"Now",0.045,122.014,123.835
"26","101",26,12.93,13.57,6,"Now",0.568,125.875,128.214
"27","101",27,18.32,24.73,1,"Later",0.954,131.625,134.348
"28","101",28,22.1,24.31,2,"Later",1.308,136.806,139.881
"29","101",29,25,27.5,4,"Later",2.347,141.52,145.63
"30","101",30,17.67,23.86,3,"Later",0.102,147.637,149.508
"31","101",31,21.87,27.34,2,"Later",0.102,150.997,152.867
"32","101",32,29.18,32.1,3,"Now",0.193,155.978,157.932
"33","101",33,24.06,30.08,1,"Later",0.195,159.12,161.074
"34","101",34,24.22,26.64,1,"Later",0.632,163.499,165.905
"35","101",35,20.9,26.12,4,"Later",0.438,168.781,170.986
"36","101",36,19.68,22.63,3,"Now",1.564,174.831,178.156
"37","101",37,17.33,23.4,2,"Later",3.288,180.531,185.594
"38","101",38,23.84,27.41,1,"Later",3.064,188.387,193.215
"39","101",39,26.71,29.38,4,"Now",2.799,196.643,201.205
"40","101",40,27.37,28.74,1,"Later",0.994,203.496,206.253
"41","101",41,23.74,26.11,1,"Later",2.579,208.544,212.888
"42","101",42,16.02,16.82,2,"Later",0.521,214.01,216.298
"43","101",43,17.14,25.71,2,"Later",0.49,218.489,220.744
"44","101",44,14.16,16.28,2,"Later",2.172,222.935,226.878
"45","101",45,25.72,28.29,5,"Later",1.964,229.103,232.828
"46","101",46,14.36,17.94,4,"Later",1.395,235.12,238.278
"47","101",47,26.92,30.95,3,"Later",0.405,242.006,244.178
"48","101",48,14.87,18.59,2,"Later",0.335,246.068,248.172
"49","101",49,15.09,18.87,5,"Later",0.126,249.661,251.549
"50","101",50,22.48,23.6,3,"Later",0.283,253.455,255.509
"51","101",51,10.77,12.38,5,"Later",0.26,256.614,258.636
"52","101",52,12.65,15.82,3,"Later",1.103,259.924,262.797
"53","101",53,24.83,28.56,4,"Later",0.055,266.476,268.297
"54","101",54,22.92,30.94,5,"Later",0.115,269.367,271.255
"55","101",55,24,32.39,3,"Later",0.148,274.783,276.704
"56","101",56,18.4,23,6,"Later",1.696,278.443,281.902
"57","101",57,27.03,28.38,6,"Later",1.049,283.09,285.914
"58","101",58,20.77,28.04,6,"Later",1.804,287.519,291.095
"59","101",59,24.19,32.66,4,"Later",0.205,293.469,295.44
"60","101",60,19.2,21.12,6,"Later",0.253,298.918,300.94
"61","101",61,28.02,42.02,6,"Later",0.45,303.097,305.319
"62","101",62,20.85,21.89,4,"Later",2.253,309.198,313.225
"63","101",63,27.11,40.67,4,"Later",1.067,314.864,317.704
"64","101",64,18.7,28.04,1,"Later",0.84,319.794,322.401
"65","101",65,17.56,21.95,1,"Later",1.148,323.839,326.746
"66","101",66,16.78,19.3,6,"Later",0.233,328.77,330.775
"67","101",67,19.34,21.27,3,"Later",0.362,331.912,334.05
"68","101",68,12.75,13.38,5,"Later",0.858,337.913,340.536
"69","101",69,25.02,33.77,1,"Later",2.08,342.275,346.118
"70","101",70,21.62,32.43,3,"Later",1.178,349.512,352.453
"71","101",71,17.2,18.92,2,"Later",1.053,355.062,357.885
"72","101",72,23.97,35.95,5,"Later",0.742,361.045,363.551
"73","103",1,17.76,20.42,1,NA,NA,0.048,6.33
"74","103",2,27.62,31.77,4,"Now",1.017,7.719,10.51
"75","103",3,25.66,26.94,4,"Now",1.571,13.536,16.878
"76","103",4,22.59,23.72,1,"Later",0.687,20.556,23.012
"77","103",5,16.94,21.17,2,"Later",1.033,25.537,28.344
"78","103",6,16.96,19.51,2,"Later",1.614,29.565,32.939
"79","103",7,16.47,22.23,5,"Now",1.641,36.602,40.01
"80","103",8,22.46,28.08,5,"Later",2.02,42.134,45.927
"81","103",9,19.01,20.91,2,"Now",1.355,48.903,52.028
"82","103",10,20.23,27.3,6,"Later",1.014,53.149,55.939
"83","103",11,27,29.7,6,"Now",0.878,59.517,62.157
"84","103",12,16.26,20.32,1,"Later",0.592,64.147,66.502
"85","103",13,26.68,36.01,3,"Later",1.064,69.579,72.419
"86","103",14,20.33,23.38,6,"Now",1.185,74.777,77.734
"87","103",15,12.28,16.58,2,"Later",0.651,79.056,81.478
"88","103",16,17.9,24.17,4,"Later",0.578,83.753,86.091
"89","103",17,19.27,24.09,6,"Now",1.048,88.483,91.29
"90","103",18,18.26,20.09,4,"Now",1.022,92.461,95.268
"91","103",19,26.23,27.54,2,"Later",0.974,98.06,100.799
"92","103",20,26.46,33.08,4,"Later",0.763,102.823,105.363
"93","103",21,27.46,28.83,5,"Now",1.006,107.62,110.394
"94","103",22,22.25,25.59,5,"Now",1.274,112.401,115.442
"95","103",23,23.37,24.53,3,"Now",0.859,118.167,120.789
"96","103",24,24.39,36.59,1,"Later",0.858,122.129,124.751
"97","103",25,21.28,28.72,1,"Later",0.78,126.942,129.498
"98","103",26,19.78,20.77,6,"Now",1.027,131.104,133.894
"99","103",27,15.8,17.38,1,"Later",0.535,136.252,138.558
"100","103",28,20.07,25.09,3,"Later",2.003,139.879,143.655
"101","103",29,17.77,26.66,2,"Later",0.828,144.743,147.333
"102","103",30,24.69,37.03,3,"Later",0.827,148.52,151.11
"103","103",31,3.7,5.54,4,"Now",1.626,152.465,155.857
"104","103",32,23.71,35.56,5,"Later",1.131,158.231,161.122
"105","103",33,15.51,17.07,3,"Now",0.66,164.566,166.989
"106","103",34,20,22.01,5,"Now",0.55,170.149,172.47
"107","103",35,23.03,26.48,3,"Later",1.529,175.681,178.973
"108","103",36,17.53,26.29,6,"Later",3.448,180.762,185.976
"109","103",37,17.63,20.28,1,"Later",1.074,214.425,217.264
"110","103",38,12.88,17.38,4,"Now",1.915,218.319,221.995
"111","103",39,23.42,29.28,5,"Later",2.946,226.024,230.737
"112","103",40,10.46,10.98,5,"Now",0.755,233.679,236.202
"113","103",41,15.22,22.83,4,"Later",1.095,239.011,241.868
"114","103",42,12.48,18.72,6,"Later",2.478,242.989,247.234
"115","103",43,19.26,26.01,5,"Later",1.015,250.828,253.618
"116","103",44,16.25,17.06,6,"Now",1.222,254.773,257.763
"117","103",45,18.65,20.51,2,"Now",2.036,258.935,262.744
"118","103",46,24.28,36.41,2,"Later",0.911,266.172,268.845
"119","103",47,22.28,33.42,3,"Later",0.927,270.083,272.773
"120","103",48,26.07,39.11,1,"Later",0.739,274.496,277.002
"121","103",49,29.95,31.44,2,"Now",1.505,278.658,281.933
"122","103",50,13.66,14.34,4,"Now",0.536,283.923,286.228
"123","103",51,7.18,7.9,1,"Now",0.971,287.399,290.139
"124","103",52,24.98,31.23,1,"Later",1.04,291.411,294.217
"125","103",53,24.58,33.18,2,"Later",0.403,297.695,299.867
"126","103",54,11.33,12.46,6,"Now",0.751,303.027,305.55
"127","103",55,19.37,20.34,3,"Now",1.611,308.743,312.119
"128","103",56,7.46,8.58,2,"Now",0.777,314.593,317.133
"129","103",57,25.05,31.31,3,"Later",1.303,319.14,322.214
"130","103",58,23.89,26.28,3,"Now",1.55,325.892,329.216
"131","103",59,20.25,27.34,1,"Later",1.053,332.11,334.933
"132","103",60,12.73,15.91,6,"Now",0.536,335.971,338.276
"133","103",61,29.82,34.29,4,"Later",0.835,339.447,342.053
"134","103",62,16.85,22.75,3,"Later",0.577,343.626,345.964
"135","103",63,21.93,32.89,5,"Later",1.808,347.754,351.329
"136","103",64,25.16,27.67,5,"Now",0.927,354.156,356.846
"137","103",65,14.27,17.84,2,"Later",0.385,358.953,361.108
"138","103",66,34.75,39.96,5,"Now",0.944,362.179,364.885
"139","103",67,22.35,23.46,1,"Later",1.433,366.825,370.033
"140","103",68,15.6,17.16,4,"Now",1.259,372.575,375.599
"141","103",69,20.35,25.44,4,"Later",1.118,378.726,381.616
"142","103",70,23.91,32.28,6,"Later",1.653,383.774,387.199
"143","103",71,19.11,21.98,6,"Now",2.074,389.273,393.116
"144","103",72,23,26.45,3,"Now",2.019,394.671,398.464
"145","104",1,28.97,36.21,5,NA,NA,0.063,6.347
"146","104",2,22.43,23.55,2,"Now",1.079,8.738,11.595
"147","104",3,9.96,13.45,5,"Now",0.743,14.219,16.725
"148","104",4,18.95,21.79,1,"Later",0.579,17.863,20.219
"149","104",5,25.15,28.92,5,"Now",0.476,22.159,24.397
"150","104",6,6.93,10.39,5,"Later",0.501,25.886,28.158
"151","104",7,26.77,28.1,4,"Now",0.263,30.516,32.554
"152","104",8,13.48,16.85,4,"Now",0.638,33.892,36.298
"153","104",9,19.7,20.68,1,"Now",0.049,37.937,39.757
"154","104",10,12.5,13.75,1,"Later",0.714,41.297,43.786
"155","104",11,26.27,35.46,6,"Later",0.672,45.826,48.265
"156","104",12,19.02,20.93,4,"Now",0.433,50.69,52.895
"157","104",13,16.42,18.06,3,"Later",0.545,55.922,58.227
"158","104",14,8.35,10.44,3,"Later",0.346,61.705,63.843
"159","104",15,16.74,18.42,2,"Now",0.097,66.051,67.92
"160","104",16,28.98,31.88,6,"Now",0.74,68.959,71.465
"161","104",17,18.57,23.21,6,"Now",0.134,74.525,76.428
"162","104",18,30.64,38.3,2,"Now",0.439,78.051,80.273
"163","104",19,15.52,17.85,2,"Later",0.882,83.233,85.889
"164","104",20,17.35,19.95,3,"Later",0.635,89.2,91.605
"165","104",21,26.13,27.44,6,"Now",0.113,95.05,96.937
"166","104",22,25.41,26.68,5,"Now",0.537,98.058,100.363
"167","104",23,17,22.95,1,"Later",0.214,102.254,104.241
"168","104",24,22.44,30.29,4,"Now",0.534,105.413,107.717
"169","104",25,31.74,36.5,6,"Now",0.024,110.611,112.398
"170","104",26,22.04,33.06,1,"Later",0.34,113.519,115.624
"171","104",27,27.39,41.08,6,"Later",0.259,117.096,119.117
"172","104",28,18.46,24.92,2,"Later",0.342,122.628,124.733
"173","104",29,11.03,13.79,1,"Now",0.04,125.954,127.759
"174","104",30,17.91,26.86,4,"Later",0.567,129.916,132.255
"175","104",31,28.64,31.5,5,"Now",0.472,133.459,135.698
"176","104",32,22.3,25.64,4,"Now",0.303,137.771,139.843
"177","104",33,21.94,32.91,3,"Later",0.21,141.064,143.035
"178","104",34,20.88,31.32,2,"Later",0.557,145.677,148.017
"179","104",35,20.65,21.68,3,"Later",0.784,150.107,152.663
"180","104",36,24.06,32.48,3,"Later",0.579,153.985,156.323
"181","104",37,22.72,34.08,2,"Later",0.364,159.751,161.889
"182","104",38,26.27,28.9,6,"Now",0.677,164.397,166.837
"183","104",39,17.44,26.16,6,"Later",0.161,168.827,170.747
"184","104",40,23.04,31.1,1,"Later",0.178,172.169,174.107
"185","104",41,19.71,22.67,4,"Later",0.112,175.195,177.082
"186","104",42,26.87,29.56,5,"Now",0.417,179.29,181.478
"187","104",43,25.88,27.17,1,"Later",0.472,182.683,184.921
"188","104",44,13.68,15.04,3,"Later",0.327,188.315,190.404
"189","104",45,21.19,28.6,4,"Later",0.338,192.561,194.666
"190","104",46,29.18,33.56,1,"Later",0.125,197.174,199.062
"191","104",47,24.84,27.33,1,"Now",0.503,201.804,204.076
"192","104",48,21.05,22.11,2,"Now",0.141,207.086,208.99
"193","104",49,27.5,41.25,3,"Later",0.099,211.064,212.934
"194","104",50,20.47,22.52,2,"Now",0.099,215.56,217.43
"195","104",51,21.79,27.24,4,"Later",0.31,218.485,220.555
"196","104",52,21,23.1,4,"Now",0.097,222.145,224.016
"197","104",53,22.69,23.82,3,"Now",0.462,225.605,227.827
"198","104",54,21.06,24.21,3,"Now",0.041,229.082,230.886
"199","104",55,14.12,17.65,6,"Now",0.483,232.207,234.462
"200","104",56,22.21,27.77,5,"Later",0.512,238.475,240.746
"201","104",57,19.44,22.35,2,"Now",0.058,243.105,244.926
"202","104",58,22.98,34.47,1,"Later",0.057,248.922,250.742
"203","104",59,22.5,28.13,2,"Later",0.413,252.766,254.954
"204","104",60,23.34,26.85,5,"Now",0.222,257.228,259.215
"205","104",61,25.69,26.97,4,"Now",0.426,262.226,264.414
"206","104",62,32.25,37.09,6,"Now",0.371,265.736,267.874
"207","104",63,23.43,35.14,4,"Later",0.756,270.199,272.721
"208","104",64,17.2,23.22,3,"Now",0.348,276.182,278.304
"209","104",65,22.67,30.61,6,"Later",0.968,281.514,284.255
"210","104",66,27.98,41.96,5,"Later",0.417,287.866,290.053
"211","104",67,19.77,24.72,3,"Now",0.129,292.195,294.082
"212","104",68,18.52,19.45,6,"Later",1.162,296.825,299.748
"213","104",69,27.27,36.81,5,"Later",0.953,302.641,305.364
"214","104",70,23.42,24.59,5,"Now",0.321,308.09,310.178
"215","104",71,21.43,26.78,1,"Later",0.662,312.068,314.49
"216","104",72,18.43,24.88,2,"Later",0.23,315.645,317.649
"217","105",1,18.38,20.22,4,NA,NA,0.08,6.37
"218","105",2,21.49,22.56,3,"Now",1.014,7.604,10.39
"219","105",3,21.48,22.55,4,"Now",1.399,11.709,14.879
"220","105",4,23.57,29.46,3,"Later",0.19,16.013,17.966
"221","105",5,24.94,28.68,3,"Later",0.856,21.603,24.223
"222","105",6,21.46,28.97,4,"Later",0.031,25.94,27.743
"223","105",7,26.55,27.88,6,"Now",3.074,30.579,35.418
"224","105",8,14.08,15.49,2,"Later",3.403,36.769,41.94
"225","105",9,18.79,21.61,4,"Later",0.429,43.711,45.913
"226","105",10,22.31,23.43,1,"Now",1.035,48.266,51.068
"227","105",11,19.71,22.67,5,"Later",2.073,53.771,57.609
"228","105",12,23.38,25.72,1,"Later",0.565,59.895,62.231
"229","105",13,12.36,12.97,5,"Now",1.371,63.265,66.401
"230","105",14,17.18,25.76,2,"Later",0.366,69.222,71.356
"231","105",15,29.17,36.46,5,"Later",0.442,73.793,75.996
"232","105",16,24.34,36.5,5,"Later",0.078,78.782,80.634
"233","105",17,24.01,32.42,3,"Later",0.359,84.221,86.341
"234","105",18,23.05,31.12,6,"Later",0.063,88.877,90.712
"235","105",19,21.98,24.18,3,"Later",0.701,92.664,95.134
"236","105",20,25.96,38.95,6,"Later",0.196,96.184,98.154
"237","105",21,18.97,23.71,1,"Later",0.563,100.273,102.609
"238","105",22,22.37,25.72,6,"Later",0.715,106.145,108.633
"239","105",23,21.31,24.51,1,"Later",0.331,112.37,114.471
"240","105",24,22.4,33.59,4,"Later",0.228,116.423,118.425
"241","105",25,16.32,18.77,2,"Later",0.249,121.796,123.816
"242","105",26,20.17,30.25,1,"Later",0.012,127.352,129.138
"243","105",27,12.55,16.94,1,"Later",0.419,130.89,133.075
"244","105",28,14.57,18.21,4,"Later",0.098,134.393,136.262
"245","105",29,16.6,20.75,2,"Later",0.125,138.415,140.3
"246","105",30,17.6,26.4,3,"Later",0.06,142.553,144.371
"247","105",31,18.84,25.43,2,"Later",0.367,148.109,150.245
"248","105",32,12.95,17.48,5,"Later",0.03,152.631,154.433
"249","105",33,20.91,23,6,"Later",0.084,157.953,159.805
"250","105",34,24.98,27.48,5,"Later",0.457,163.826,166.045
"251","105",35,19.11,23.88,6,"Later",0.291,168.081,170.133
"252","105",36,24.36,25.58,2,"Now",1.692,172.135,175.589
"253","105",37,13.54,14.21,2,"Later",1.757,179.176,182.696
"254","105",38,5.09,7.64,2,"Later",0.247,184.749,186.767
"255","105",39,16.22,17.84,5,"Later",0.272,189.772,191.807
"256","105",40,9.44,11.8,4,"Now",0.18,193.008,194.961
"257","105",41,21.78,27.23,3,"Later",0.08,197.764,199.616
"258","105",42,17.33,19.07,6,"Later",0.102,200.75,202.619
"259","105",43,20.56,25.7,2,"Later",2.842,203.787,208.392
"260","105",44,19.03,25.69,2,"Later",0.043,209.993,211.796
"261","105",45,13.15,16.43,6,"Later",1.212,213.081,216.068
"262","105",46,21.18,28.59,4,"Later",1.16,219.02,221.94
"263","105",47,10.81,11.35,3,"Now",1.141,224.776,227.681
"264","105",48,10.18,13.74,1,"Later",1.439,228.765,231.968
"265","105",49,10.67,16,6,"Later",0.203,233.737,235.705
"266","105",50,23.58,31.83,3,"Later",1.535,236.99,240.294
"267","105",51,23.77,27.34,5,"Later",0.419,242.913,245.098
"268","105",52,22.18,25.51,1,"Later",0.306,247.218,249.288
"269","105",53,27.11,28.47,4,"Now",1.236,251.657,254.66
"270","105",54,21.65,27.07,1,"Later",0.9,257.713,260.383
"271","105",55,18.5,27.75,4,"Later",0.026,262.386,264.186
"272","105",56,16.11,17.73,2,"Later",1.429,265.455,268.658
"273","105",57,16.17,16.97,5,"Now",1.089,271.228,274.081
"274","105",58,29.07,33.43,6,"Later",0.376,276.868,279.002
"275","105",59,17.76,26.64,5,"Later",0.166,282.39,284.326
"276","105",60,28.04,30.84,1,"Later",2.255,285.861,289.882
"277","105",61,8.29,12.43,3,"Later",1.153,292.235,295.154
"278","105",62,16.72,18.39,3,"Later",0.278,297.974,300.027
"279","105",63,21.35,32.02,1,"Later",0.487,301.861,304.113
"280","105",64,20.74,25.93,5,"Later",0.453,306.583,308.803
"281","105",65,26.47,27.79,1,"Later",0.745,310.004,312.506
"282","105",66,22.9,30.91,6,"Later",0.263,314.292,316.328
"283","105",67,21.61,24.85,3,"Later",0.005,318.647,320.415
"284","105",68,11.98,13.18,4,"Later",0.221,324.119,326.105
"285","105",69,23.86,32.21,5,"Later",0.302,327.573,329.642
"286","105",70,18.81,21.63,2,"Later",0.71,331.495,333.964
"287","105",71,15.63,16.41,6,"Later",0.332,337.568,339.67
"288","105",72,18.33,21.08,4,"Later",0.882,341.306,343.958
"289","106",1,17.44,23.54,2,"Now",0.985,0.072,2.829
"290","106",2,9.56,10.52,6,"Now",1.48,4.752,8.01
"291","106",3,11.21,11.77,4,"Now",0.901,11.989,14.661
"292","106",4,24.14,32.59,5,"Now",0.942,15.716,18.423
"293","106",5,20.52,25.65,5,"Now",0.22,20.463,22.451
"294","106",6,7.51,9.38,3,"Now",0.166,23.773,25.71
"295","106",7,22.68,28.35,4,"Now",0.579,29.088,31.426
"296","106",8,19.25,25.99,4,"Now",1.529,34.002,37.292
"297","106",9,15.81,16.6,3,"Now",0.889,38.849,41.505
"298","106",10,24.86,37.29,4,"Later",1.814,44.933,48.509
"299","106",11,20.34,25.43,6,"Now",0.589,49.997,52.353
"300","106",12,16.59,19.08,5,"Now",0.142,54.093,55.997
"301","106",13,22.29,24.52,5,"Now",0.114,59.24,61.128
"302","106",14,22.18,33.26,5,NA,NA,64.522,70.806
"303","106",15,15.97,18.36,3,"Now",0.354,72.144,74.266
"304","106",16,24.48,26.93,4,"Now",0.123,76.623,78.511
"305","106",17,16.36,22.09,1,"Later",0.383,81.955,84.11
"306","106",18,18.99,28.49,6,"Now",0.598,86.652,89.04
"307","106",19,21.42,24.64,1,"Now",0.193,92.218,94.172
"308","106",20,25.05,37.58,3,"Later",0.068,95.51,97.348
"309","106",21,21.6,23.76,3,"Now",0.298,101.177,103.248
"310","106",22,22.61,26,4,"Now",0.701,105.79,108.261
"311","106",23,21.31,23.44,1,"Now",0.037,110.085,111.888
"312","106",24,22.29,33.44,2,"Later",0.325,115.885,117.973
"313","106",25,14.66,18.32,2,"Now",0.643,119.679,122.085
"314","106",26,28.35,32.6,2,"Now",0.982,125.228,127.985
"315","106",27,18.9,19.84,5,"Now",0.255,130.644,132.665
"316","106",28,24.7,25.94,6,"Now",0.08,135.859,137.712
"317","106",29,11.72,12.31,2,"Now",0.267,141.609,143.647
"318","106",30,13.97,20.96,1,"Later",0.849,145.754,148.377
"319","106",31,31.33,42.29,3,"Now",0.247,151.42,153.44
"320","106",32,19.31,20.28,1,"Now",0.911,155.531,158.205
"321","106",33,22.43,25.8,6,"Now",1.046,159.326,162.149
"322","106",34,22.35,24.59,2,"Now",1.038,163.604,166.411
"323","106",35,13.66,18.44,6,"Now",0.765,169.622,172.161
"324","106",36,27.86,34.83,1,"Later",1.009,176.073,178.847
"325","106",37,18.67,28,4,"Now",4.113,183.946,189.828
"326","106",38,21.7,32.54,6,"Now",1.753,192.169,195.695
"327","106",39,17.56,21.95,6,"Now",0.553,197.05,199.372
"328","106",40,16.04,18.45,4,"Now",0.108,201.462,203.333
"329","106",41,18.5,21.27,2,"Now",1.12,205.674,208.565
"330","106",42,16.34,18.79,1,"Later",0.908,209.703,212.375
"331","106",43,25.44,29.25,5,"Now",0.442,214.065,216.269
"332","106",44,30.41,45.62,5,"Now",0.396,219.263,221.435
"333","106",45,12.92,14.21,2,"Now",1.416,223.091,226.281
"334","106",46,27.89,41.83,2,"Later",0.893,228.606,231.262
"335","106",47,26.07,27.38,3,"Now",0.219,233.871,235.859
"336","106",48,17.28,19.01,3,"Now",0.031,237.532,239.335
"337","106",49,12.67,17.1,5,"Now",0.333,241.142,243.247
"338","106",50,18.77,21.58,3,"Now",0.605,244.886,247.258
"339","106",51,13.2,16.5,4,"Now",0.515,248.296,250.584
"340","106",52,20.55,25.69,1,"Later",0.946,253.561,256.268
"341","106",53,20.22,22.25,5,"Now",0.037,259.093,260.897
"342","106",54,25.16,33.96,6,"Now",0.791,262.62,265.176
"343","106",55,18.14,19.05,2,"Now",0.527,267.3,269.589
"344","106",56,16.74,20.93,5,"Now",0.528,272.715,275.004
"345","106",57,23.19,25.51,6,"Now",1.171,276.56,279.5
"346","106",58,21.58,26.97,3,"Now",0.647,283.011,285.434
"347","106",59,19.77,26.7,2,"Now",0.233,286.922,288.927
"348","106",60,16.75,17.59,4,"Now",0.185,291.987,293.941
"349","106",61,20.74,25.93,2,"Now",0.398,295.781,297.953
"350","106",62,21.04,24.2,6,"Now",0.463,301.765,303.986
"351","106",63,24.26,36.39,1,"Now",0.555,305.76,308.082
"352","106",64,21.11,23.22,1,"Now",1.124,311.559,314.449
"353","106",65,14.1,14.81,1,"Now",1.257,315.905,318.929
"354","106",66,14.55,15.28,5,"Now",0.685,321.07,323.525
"355","106",67,22.68,34.01,3,"Later",1.863,324.78,328.406
"356","106",68,20.31,27.41,1,"Later",1.981,330.045,333.805
"357","106",69,20.5,27.68,3,"Now",0.38,335.143,337.315
"358","106",70,23.77,32.09,4,"Now",0.444,338.687,340.892
"359","106",71,25.05,26.3,6,"Now",0.233,344.186,346.19
"360","106",72,22.19,24.41,4,"Now",0.175,347.963,349.901
"361","107",1,22.09,29.81,2,"Now",0.675,0.046,2.502
"362","107",2,19.82,21.8,1,"Now",0.417,4.943,7.131
"363","107",3,25.11,37.66,3,"Later",1.615,9.924,13.315
"364","107",4,18.08,18.99,2,"Now",0.798,15.74,18.313
"365","107",5,15.2,16.72,2,"Now",0.789,20.821,23.378
"366","107",6,15.08,16.59,3,"Now",1.574,26.437,29.778
"367","107",7,24.73,33.38,4,"Now",2.315,32.12,36.197
"368","107",8,19.88,20.87,6,"Now",0.902,37.469,40.141
"369","107",9,20.19,27.26,1,"Now",1.659,41.279,44.705
"370","107",10,13.92,18.79,3,"Now",0.824,47.715,50.304
"371","107",11,12.23,14.06,4,"Now",0.221,54.333,56.321
"372","107",12,12.41,15.52,1,"Now",0.629,59.197,61.586
"373","107",13,17.35,21.69,4,"Now",1.879,63.459,67.102
"374","107",14,16.22,18.65,6,"Now",1.326,69.861,72.968
"375","107",15,15.27,19.09,6,"Now",0.998,74.156,76.93
"376","107",16,12.98,14.92,2,"Now",0.668,79.639,82.078
"377","107",17,17.47,26.2,1,"Later",2.882,85.305,89.95
"378","107",18,22.71,24.98,4,"Now",0.281,93.361,95.433
"379","107",19,17.22,19.81,5,"Now",0.272,97.891,99.928
"380","107",20,18.18,22.73,5,"Now",1.161,101.434,104.358
"381","107",21,28.65,32.94,1,"Now",0.518,107.853,110.141
"382","107",22,19.9,24.87,2,"Now",1.561,111.713,115.037
"383","107",23,25.09,26.34,5,"Now",0.571,117.496,119.835
"384","107",24,18.41,19.33,4,"Now",0.263,120.94,122.978
"385","107",25,34.18,39.3,3,"Now",0.292,124.366,126.42
"386","107",26,25.96,32.45,3,"Now",0.627,130.417,132.805
"387","107",27,21.12,23.23,5,"Now",0.149,133.91,135.831
"388","107",28,24.89,37.34,6,"Now",0.909,137.453,140.126
"389","107",29,20.34,30.51,2,"Now",0.309,142.885,144.957
"390","107",30,22.04,29.75,6,"Now",0.999,146.395,149.169
"391","107",31,15.35,16.89,6,"Now",0.256,150.29,152.328
"392","107",32,22.17,33.26,4,"Now",0.481,156.09,158.345
"393","107",33,13.76,18.57,5,"Now",2.233,160.569,164.562
"394","107",34,25.63,38.44,5,"Now",0.264,167.539,169.577
"395","107",35,21.91,23.01,3,"Now",0.88,171.082,173.739
"396","107",36,18.89,19.83,1,"Now",1.219,176.247,179.237
"397","107",37,21.32,22.39,5,"Now",1.038,182.565,185.372
"398","107",38,19.75,21.73,4,"Now",0.528,188.866,191.155
"399","107",39,23.09,28.86,5,"Now",0.907,192.36,195.032
"400","107",40,22.79,23.93,6,"Now",0.632,198.427,200.832
"401","107",41,21.75,23.93,3,"Now",0.044,203.575,205.379
"402","107",42,21.3,28.76,2,"Now",0.559,208.923,211.245
"403","107",43,24.94,26.19,4,"Now",0.771,212.383,214.923
"404","107",44,16.88,22.79,5,"Now",1.137,216.562,219.485
"405","107",45,16.03,18.44,1,"Now",0.803,220.991,223.564
"406","107",46,12.78,17.26,6,"Now",0.633,225.537,227.943
"407","107",47,18.13,27.19,4,"Now",0.185,230.769,232.724
"408","107",48,13.89,14.58,2,"Now",0.513,234.914,237.186
"409","107",49,16.23,17.86,6,"Now",0.083,239.344,241.197
"410","107",50,29.31,36.64,3,"Now",0.956,242.887,245.61
"411","107",51,23.13,26.6,5,"Now",0.819,248.687,251.276
"412","107",52,25.17,37.75,6,"Now",1.198,252.564,255.539
"413","107",53,19.83,29.74,3,"Later",3.186,256.994,261.957
"414","107",54,19.79,26.71,3,"Now",1.66,263.312,266.737
"415","107",55,23.57,29.47,2,"Now",0.196,269.279,271.25
"416","107",56,16.07,20.08,6,"Now",0.318,273.925,276.013
"417","107",57,22.71,26.11,2,"Now",0.646,278.589,280.994
"418","107",58,21.5,26.87,1,"Now",0.026,283.553,285.339
"419","107",59,19.45,21.4,5,"Now",1.01,288.066,290.839
"420","107",60,29.62,31.1,3,"Now",0.526,292.428,294.717
"421","107",61,13.96,15.35,2,"Now",0.438,297.125,299.33
"422","107",62,19.25,22.13,3,"Now",0.06,303.343,305.163
"423","107",63,13.9,20.85,2,"Now",0.629,307.822,310.21
"424","107",64,21.07,22.12,1,"Now",0.106,312.937,314.807
"425","107",65,24.44,30.55,4,"Now",0.145,318.201,320.123
"426","107",66,25.99,38.99,1,"Now",0.342,323.149,325.253
"427","107",67,21.99,29.69,4,"Now",0.784,327.595,330.151
"428","107",68,23.74,27.3,4,"Now",0.036,333.495,335.299
"429","107",69,29.31,33.71,6,"Now",1.739,336.871,340.38
"430","107",70,20.48,27.65,1,"Now",0.193,341.785,343.74
"431","107",71,23.63,25.99,1,"Now",0.439,345.78,347.985
"432","107",72,13.35,20.03,5,"Now",0.164,349.958,351.896
"433","108",1,12.83,14.75,2,"Now",4.192,0.065,6.03
"434","108",2,12.65,13.28,5,"Now",1.078,8.138,10.995
"435","108",3,29.26,36.58,3,"Now",1.568,12.65,15.992
"436","108",4,23.24,24.4,4,"Now",1.145,18.049,20.956
"437","108",5,17.37,23.46,2,"Later",3.218,23.465,28.445
"438","108",6,20.98,23.08,6,"Now",0.375,30.652,32.79
"439","108",7,23.01,31.06,6,"Now",0.665,36.786,39.224
"440","108",8,20.23,30.34,2,"Now",1.748,40.814,44.323
"441","108",9,20.38,30.56,4,"Now",0.498,47.232,49.504
"442","108",10,21.35,32.03,1,"Later",0.356,53.183,55.303
"443","108",11,14.9,17.14,3,"Now",0.199,56.86,58.831
"444","108",12,26.45,33.06,2,"Later",0.646,60.069,62.475
"445","108",13,27.48,41.22,6,"Now",0.246,64.548,66.57
"446","108",14,29.05,30.51,2,"Now",0.896,67.691,70.364
"447","108",15,28.73,31.6,1,"Later",1.029,71.669,74.459
"448","108",16,15.54,19.42,4,"Now",0.59,75.597,77.952
"449","108",17,25.49,34.42,1,"Later",0.531,80.544,82.849
"450","108",18,25.15,33.95,5,"Now",0.047,84.372,86.209
"451","108",19,26.02,32.53,5,"Now",0.51,87.765,90.036
"452","108",20,15.01,15.76,3,"Now",0.267,91.96,93.997
"453","108",21,24.54,25.77,1,"Now",0.754,95.537,98.059
"454","108",22,22.47,28.09,1,"Later",0.503,100.3,102.573
"455","108",23,24.23,25.44,6,"Now",0.231,104.028,106.031
"456","108",24,17.86,26.8,3,"Now",0.19,109.293,111.247
"457","108",25,12.23,14.07,4,"Now",0.496,113.739,116.011
"458","108",26,22.69,24.96,5,"Now",0.11,119.789,121.66
"459","108",27,17.24,25.86,5,"Now",0.055,124.235,126.056
"460","108",28,19.73,21.71,4,"Now",0.069,129.333,131.171
"461","108",29,18.44,20.28,3,"Now",0.498,134.849,137.121
"462","108",30,16.56,20.7,6,"Now",0.289,140.281,142.336
"463","108",31,16.08,21.71,4,"Now",0.408,144.242,146.413
"464","108",32,18.7,25.25,3,"Now",0.393,147.602,149.757
"465","108",33,27.41,31.53,5,"Now",0.184,153.418,155.373
"466","108",34,19.13,21.04,2,"Now",0.061,156.862,158.682
"467","108",35,23.87,27.45,6,"Now",0.062,160.572,162.41
"468","108",36,20.95,24.1,1,"Later",0.07,164.701,166.538
"469","108",37,26.22,39.33,2,"Now",0.983,193.315,196.071
"470","108",38,25.91,32.39,2,"Now",0.4,200.018,202.189
"471","108",39,21.42,22.49,1,"Later",0.206,205.316,207.287
"472","108",40,20.15,27.2,5,"Now",0.102,209.445,211.316
"473","108",41,19.23,25.96,3,"Now",0.068,214.175,216.012
"474","108",42,6.89,8.61,4,"Later",0.044,218.872,220.676
"475","108",43,19.8,26.73,6,"Now",0.074,222.265,224.102
"476","108",44,28.8,36,3,"Now",0.4,226.627,228.798
"477","108",45,22.81,26.23,4,"Now",0.299,229.903,231.975
"478","108",46,25.6,28.16,6,"Now",0.019,234.767,236.554
"479","108",47,23.04,26.5,6,"Now",0.026,237.792,239.58
"480","108",48,16.77,25.16,3,"Now",0.108,241.135,243.006
"481","108",49,27.31,30.04,2,"Now",0.024,245.147,246.934
"482","108",50,17.34,18.21,3,"Now",0.486,247.988,250.243
"483","108",51,17.65,19.42,1,"Later",0.214,253.621,255.608
"484","108",52,25.17,26.42,5,"Now",0.103,257.148,259.018
"485","108",53,15.89,19.86,6,"Now",0.132,260.223,262.127
"486","108",54,22.43,28.04,5,"Now",0.011,265.104,266.873
"487","108",55,16.85,25.28,1,"Now",0.14,269.951,271.855
"488","108",56,19.3,21.23,5,"Now",0.132,275.55,277.454
"489","108",57,21.48,23.62,4,"Now",0.043,278.776,280.579
"490","108",58,17.99,26.98,5,"Now",0.09,283.473,285.327
"491","108",59,13.66,17.08,1,"Later",0.356,287.919,290.04
"492","108",60,21.84,25.12,5,"Now",0.085,293.15,295.004
"493","108",61,14.37,21.56,6,"Now",0.087,297.195,299.049
"494","108",62,26,35.11,4,"Now",0.027,300.488,302.275
"495","108",63,14.78,15.52,2,"Later",0.257,304.466,306.487
"496","108",64,16.56,18.22,3,"Now",0.058,309.48,311.301
"497","108",65,14.94,17.18,2,"Later",0.327,313.675,315.764
"498","108",66,18.74,19.68,4,"Now",0.108,317.871,319.742
"499","108",67,26.35,39.52,4,"Now",0.129,323.554,325.441
"500","108",68,18.06,20.77,1,"Later",0.132,327.415,329.319
"501","108",69,20.33,21.34,6,"Now",0.144,330.507,332.41
"502","108",70,18.05,24.37,1,"Later",0.07,334.468,336.305
"503","108",71,23.92,27.5,3,"Now",0.021,339.215,341.002
"504","108",72,13.9,18.77,2,"Later",0.179,344.647,346.601
"505","109",1,15.31,16.84,2,NA,NA,0.086,6.386
"506","109",2,12.4,15.5,6,"Now",3.345,7.791,12.903
"507","109",3,26.15,30.07,4,NA,NA,15.78,22.063
"508","109",4,20.74,23.85,2,"Now",0.905,25.24,27.913
"509","109",5,29,43.51,2,"Later",1.086,29.269,32.125
"510","109",6,24.34,36.51,6,"Later",0.413,33.23,35.418
"511","109",7,13.92,14.62,1,"Later",1.3,36.79,39.863
"512","109",8,24.87,28.6,1,"Later",0.565,41.821,44.159
"513","109",9,23.61,29.51,1,"Later",0.003,47.671,49.441
"514","109",10,24.1,30.13,2,"Later",0.417,52.033,54.222
"515","109",11,23.97,25.17,2,"Later",0.565,55.31,57.647
"516","109",12,22,23.1,6,"Now",0.733,59.07,61.576
"517","109",13,15.57,21.01,3,"Later",0.131,63.6,65.503
"518","109",14,18.54,23.17,5,"Later",0.104,68.363,70.234
"519","109",15,11.23,16.85,1,"Later",0.256,71.907,73.927
"520","109",16,18.77,23.46,3,"Later",0.363,77.64,79.778
"521","109",17,15.44,16.99,6,"Now",0.299,82.671,84.742
"522","109",18,17.63,26.44,5,"Later",1.154,86.849,89.773
"523","109",19,23.23,25.56,3,"Now",0.271,91.379,93.416
"524","109",20,21.76,29.38,1,"Later",0.045,96.109,97.93
"525","109",21,17.88,24.13,4,"Later",0.653,101.558,103.98
"526","109",22,15.13,20.42,6,"Later",0.979,107.592,110.332
"527","109",23,23.37,31.55,5,"Later",0.312,114.378,116.448
"528","109",24,21.95,24.15,4,"Later",0.83,118.172,120.778
"529","109",25,13.37,16.71,4,"Later",1.097,123.571,126.427
"530","109",26,24.51,25.74,3,"Now",0.333,129.07,131.175
"531","109",27,8.57,9.42,1,"Later",0.279,132.379,134.434
"532","109",28,16.25,18.68,3,"Later",0.952,135.922,138.645
"533","109",29,22.61,24.87,5,"Later",0.076,142.174,144.011
"534","109",30,13.42,15.43,5,"Now",0.396,146.118,148.29
"535","109",31,18.92,21.75,6,"Later",1.249,149.377,152.401
"536","109",32,15.49,16.26,4,"Now",0.195,154.759,156.73
"537","109",33,18,24.3,2,"Later",0.326,159.757,161.844
"538","109",34,18.67,28.01,4,"Later",0.19,163.668,165.623
"539","109",35,17.71,18.6,5,"Now",0.411,167.111,169.283
"540","109",36,20.75,31.13,3,"Later",0.066,171.457,173.294
"541","109",37,23.94,27.53,3,"Later",0.446,176.588,178.81
"542","109",38,29.34,32.27,3,"Later",1.301,181.302,184.376
"543","109",39,20.54,25.68,1,"Later",0.157,186.75,188.671
"544","109",40,22.01,29.71,4,"Later",0.507,190.511,192.783
"545","109",41,23.71,26.08,1,"Later",0.312,193.954,196.043
"546","109",42,26.31,32.89,6,"Later",0.01,197.464,199.235
"547","109",43,20.74,25.92,3,"Later",0.051,203.064,204.884
"548","109",44,16.78,25.16,3,"Later",0.071,208.212,210.048
"549","109",45,20.9,24.03,1,"Later",0.638,211.588,213.994
"550","109",46,18.23,27.35,6,"Later",0.345,216.218,218.323
"551","109",47,21.77,29.38,3,"Later",0.421,221.734,223.922
"552","109",48,21.83,25.11,2,"Later",0.881,226.313,228.97
"553","109",49,23.59,25.95,2,"Later",0.198,232.381,234.351
"554","109",50,12.87,16.08,4,"Later",0.3,237.294,239.383
"555","109",51,24.11,36.17,2,"Later",0.227,242.944,244.932
"556","109",52,8.77,9.21,4,"Now",0.083,246.12,247.973
"557","109",53,18.64,21.43,6,"Now",0.368,249.563,251.7
"558","109",54,14.85,16.34,6,"Later",0.442,252.872,255.077
"559","109",55,23.71,27.27,4,"Later",0.001,257.218,258.988
"560","109",56,16.91,22.83,2,"Later",0.402,262.984,265.155
"561","109",57,17.56,18.44,2,"Now",0.739,268.216,270.722
"562","109",58,19.58,20.56,3,"Later",0.243,274.183,276.187
"563","109",59,15.77,19.71,2,"Later",1.071,278.595,281.436
"564","109",60,20.23,21.24,1,"Later",0.631,283.092,285.497
"565","109",61,20.41,25.51,5,"Later",0.091,286.936,288.789
"566","109",62,14.91,20.13,5,"Later",0.763,290.479,293.018
"567","109",63,28.89,39,6,"Later",0.58,295.327,297.682
"568","109",64,21.29,31.93,5,"Later",1.295,299.004,302.06
"569","109",65,18.8,19.74,5,"Now",0.486,303.149,305.403
"570","109",66,16.3,17.93,5,"Now",0.386,307.728,309.883
"571","109",67,27.1,29.81,4,"Now",1.064,313.579,316.401
"572","109",68,18.93,28.39,4,"Later",0.149,318.342,320.262
"573","109",69,26.51,30.49,5,"Later",0.247,321.819,323.84
"574","109",70,17.71,23.91,1,"Later",0.273,326.081,328.118
"575","109",71,29.25,30.71,6,"Later",0.139,329.775,331.679
"576","109",72,26.16,39.24,1,"Later",0.385,332.833,334.988
"577","110",1,17.22,18.08,6,"Later",2.433,0.026,4.23
"578","110",2,23.92,32.3,3,"Later",1.337,5.832,8.934
"579","110",3,27.73,29.12,1,NA,NA,12.155,18.446
"580","110",4,23.61,31.87,6,"Later",0.273,19.747,21.783
"581","110",5,25.46,29.28,1,"Later",1.047,23.835,26.656
"582","110",6,18.5,24.97,5,"Later",1.518,27.789,31.077
"583","110",7,20.97,24.12,5,"Later",1.202,32.561,35.532
"584","110",8,22.91,24.06,4,"Now",0.829,36.983,39.586
"585","110",9,17.8,19.58,5,"Now",1.454,40.837,44.057
"586","110",10,12.23,12.84,3,"Now",1.698,47.178,50.647
"587","110",11,19.66,24.58,3,"Later",0.382,53.518,55.671
"588","110",12,13.32,16.65,4,"Later",0.812,57.639,60.225
"589","110",13,18.34,21.09,3,"Later",0.402,63.329,65.497
"590","110",14,32.24,48.36,3,"Later",0.208,68.267,70.236
"591","110",15,17.18,18.04,2,"Later",0.702,71.637,74.107
"592","110",16,16.11,17.73,3,"Later",0.693,76.343,78.794
"593","110",17,19.55,24.44,6,"Later",0.072,81.131,82.967
"594","110",18,22.13,24.35,1,"Later",1.061,85.87,88.707
"595","110",19,20.1,30.15,2,"Later",0.24,92.26,94.264
"596","110",20,22.8,26.22,2,"Later",0.236,97.383,99.385
"597","110",21,18.84,28.27,5,"Later",0.29,100.971,103.023
"598","110",22,18.85,21.68,6,"Now",1.788,104.223,107.778
"599","110",23,24.41,36.61,4,"Later",0.038,110.03,111.832
"600","110",24,22.18,33.28,1,"Later",0.686,114.301,116.754
"601","110",25,17.57,21.96,5,"Later",0.945,119.091,121.81
"602","110",26,19.14,21.06,4,"Now",0.96,124.379,127.117
"603","110",27,20.48,22.52,6,"Later",0.315,128.8,130.886
"604","110",28,14.8,17.02,4,"Later",0.714,132.154,134.641
"605","110",29,14.74,19.9,2,"Later",0.158,136.126,138.044
"606","110",30,20.7,25.88,1,"Later",0.087,141.965,143.818
"607","110",31,17.12,23.11,1,"Later",0.017,145.403,147.188
"608","110",32,23.14,28.93,2,"Later",0.31,150.725,152.811
"609","110",33,22.01,23.12,5,"Now",0.773,154.463,156.999
"610","110",34,7.37,8.11,2,"Later",0.824,160.62,163.205
"611","110",35,28.01,37.82,4,"Later",0.088,166.092,167.944
"612","110",36,22.95,34.43,6,"Later",0.746,169.146,171.665
"613","110",37,24.92,37.37,3,"Later",1.383,176.42,179.573
"614","110",38,16.7,25.05,5,"Later",1.184,183.211,186.164
"615","110",39,11.35,14.19,4,"Later",0.005,187.383,189.151
"616","110",40,24.63,28.32,6,"Now",0.992,190.836,193.59
"617","110",41,16.21,21.88,6,"Later",0.038,195.558,197.36
"618","110",42,16.97,18.67,2,"Later",0.638,198.461,200.864
"619","110",43,18.89,19.83,3,"Later",1.02,202.999,205.786
"620","110",44,27.11,40.66,4,"Later",0.247,209.356,211.376
"621","110",45,18.25,27.38,1,"Later",0.569,214.362,216.698
"622","110",46,26.71,28.04,5,"Now",1.255,219.901,222.922
"623","110",47,16.2,17.82,5,"Now",1.116,226.408,229.296
"624","110",48,14.77,18.46,3,"Later",0.741,230.647,233.149
"625","110",49,17.7,20.35,4,"Later",0.626,234.217,236.603
"626","110",50,20.33,22.36,1,"Later",1.493,238.806,242.075
"627","110",51,21.3,23.43,6,"Now",0.704,245.363,247.832
"628","110",52,24.06,26.47,4,"Now",1.33,249.217,252.321
"629","110",53,27.43,31.54,2,"Later",0.556,254.84,257.16
"630","110",54,26.1,35.24,4,"Later",0.645,259.678,262.098
"631","110",55,25.82,32.28,5,"Later",0.019,264.4,266.186
"632","110",56,15.38,17.68,1,"Later",0.527,269.572,271.875
"633","110",57,11.14,13.92,6,"Now",1.09,273.227,276.079
"634","110",58,20.71,21.75,2,"Later",0.094,277.565,279.434
"635","110",59,20.9,21.94,6,"Now",1.094,281.669,284.539
"636","110",60,20.81,22.89,3,"Later",1.343,287.477,290.578
"637","110",61,15.07,15.82,1,"Later",0.799,292.748,295.318
"638","110",62,15.68,21.17,3,"Later",0.019,297.337,299.121
"639","110",63,26.65,35.98,2,"Later",0.036,302.576,304.377
"640","110",64,25.04,31.29,1,"Later",0.152,306.964,308.884
"641","110",65,15.58,19.47,2,"Later",0.244,311.535,313.555
"642","110",66,14.43,21.64,6,"Later",0.194,315.858,317.826
"643","110",67,6.22,9.33,2,"Later",0.703,321.597,324.066
"644","110",68,23.6,27.14,3,"Later",0.115,325.384,327.27
"645","110",69,15.39,16.16,4,"Later",0.066,328.305,330.139
"646","110",70,17.84,24.08,1,"Later",0.374,332.526,334.662
"647","110",71,14.39,16.55,5,"Now",1.204,336.864,339.834
"648","110",72,21.09,28.47,5,"Later",0.485,340.935,343.187
"649","111",1,18.01,19.81,3,NA,NA,0.043,6.327
"650","111",2,21.44,23.58,4,"Now",1.379,8.484,11.642
"651","111",3,17.88,26.82,2,"Later",1.4,14.284,17.459
"652","111",4,23.99,25.19,2,"Now",2.551,20.836,25.164
"653","111",5,17.49,21.86,2,"Later",2.534,26.669,30.963
"654","111",6,20.24,30.36,4,"Later",3.794,33.488,39.053
"655","111",7,17.96,19.76,1,"Now",1.532,40.208,43.499
"656","111",8,14.28,21.42,6,"Later",3.074,44.921,49.767
"657","111",9,16.2,21.87,4,NA,NA,53.328,59.612
"658","111",10,15.52,19.4,4,"Later",1.363,61.552,64.676
"659","111",11,22.49,23.62,3,"Now",0.747,66.967,69.49
"660","111",12,24.16,27.79,3,"Now",2.026,70.912,74.705
"661","111",13,22.32,25.67,4,"Later",1.076,76.695,79.534
"662","111",14,13.37,18.04,6,"Later",0.28,81.642,83.697
"663","111",15,20.64,30.96,3,"Later",1.15,85.086,88.009
"664","111",16,15.28,19.1,6,"Later",2.217,90.986,94.962
"665","111",17,16.43,18.89,1,"Later",1.489,97.17,100.427
"666","111",18,18.91,19.85,4,"Now",2.652,104.023,108.451
"667","111",19,28.54,35.67,3,"Later",1.369,111.21,114.351
"668","111",20,17.53,20.16,6,"Now",2.086,115.773,119.65
"669","111",21,21.07,22.13,6,"Now",0.367,120.971,123.109
"670","111",22,18.44,19.36,1,NA,NA,125.417,131.7
"671","111",23,21.91,32.86,1,"Later",0.316,134.175,136.279
"672","111",24,22.11,29.84,3,"Later",1.66,138.671,142.097
"673","111",25,25.85,38.77,5,"Later",0.448,145.29,147.512
"674","111",26,17.72,19.5,5,"Now",0.672,149.436,151.874
"675","111",27,20.61,23.7,5,"Now",0.32,153.347,155.435
"676","111",28,19.26,26,2,"Later",0.244,156.99,158.995
"677","111",29,11.67,15.76,5,"Later",0.184,162.523,164.477
"678","111",30,31.88,39.85,1,"Later",0.324,165.615,167.703
"679","111",31,23.74,24.93,5,"Now",0.139,170.495,172.399
"680","111",32,14.69,16.16,6,"Now",2.103,173.604,177.48
"681","111",33,20.72,27.98,1,"Later",1.133,179.638,182.545
"682","111",34,24.19,30.23,5,"Later",2.834,184.936,189.532
"683","111",35,26.72,29.39,2,"Now",1.284,191.639,194.697
"684","111",36,22.43,25.79,2,"Later",1.715,198.007,201.499
"685","111",37,28.38,32.63,3,"Later",2.506,206.648,210.926
"686","111",38,20.32,27.43,3,"Later",1.564,212.799,216.124
"687","111",39,22.33,27.91,1,"Later",1.219,219.368,222.358
"688","111",40,20.41,21.43,5,"Now",1.087,223.764,226.621
"689","111",41,14.82,17.05,2,"Now",1.958,230.533,234.259
"690","111",42,22.42,25.78,1,"Later",1.343,235.363,238.471
"691","111",43,18.98,23.73,6,"Now",0.462,239.692,241.914
"692","111",44,26.43,30.39,4,"Later",2.01,243.169,246.945
"693","111",45,17.18,23.2,5,"Later",0.742,250.925,253.43
"694","111",46,27.07,33.84,2,"Later",0.042,256.825,258.629
"695","111",47,17.42,26.13,5,"Later",0.128,261.555,263.459
"696","111",48,21.22,31.83,3,"Later",0.217,266.586,268.573
"697","111",49,20.08,27.11,2,"Later",0.046,271.734,273.554
"698","111",50,33.07,36.38,5,"Later",0.544,274.659,276.964
"699","111",51,18.99,28.48,2,"Later",2.966,278.269,282.998
"700","111",52,17.05,18.75,6,"Now",0.916,284.854,287.544
"701","111",53,21.03,22.08,3,"Now",0.746,290.337,292.843
"702","111",54,16.23,20.28,3,"Later",3.579,295.936,301.283
"703","111",55,26.6,30.58,5,"Now",1.339,302.872,305.98
"704","111",56,21.36,32.03,6,"Later",0.55,308.204,310.526
"705","111",57,11.78,12.96,3,"Now",1.503,313.051,316.326
"706","111",58,19.41,29.11,1,"Later",0.351,318.667,320.789
"707","111",59,27.86,30.65,4,"Now",1.083,324.016,326.872
"708","111",60,26.89,40.33,4,"Later",0.074,329.264,331.102
"709","111",61,16.58,20.72,4,"Later",0.173,333.894,335.832
"710","111",62,32.48,34.1,1,"Later",0.98,338.023,340.762
"711","111",63,19.76,26.67,4,"Later",0.59,343.772,346.127
"712","111",64,27.04,36.51,6,"Later",0.095,347.867,349.737
"713","111",65,10.03,13.54,1,"Later",0.847,353.5,356.123
"714","111",66,22.47,24.72,1,"Later",3.724,357.294,362.792
"715","111",67,19.5,20.47,6,"Now",2.081,366.738,370.581
"716","111",68,19.27,21.2,2,"Later",2.259,372.12,376.147
"717","111",69,22.7,26.1,6,"Now",2.806,377.836,382.414
"718","111",70,21.98,27.48,5,"Now",0.873,385.257,387.897
"719","111",71,16.17,16.98,2,"Now",0.363,389.553,391.674
"720","111",72,28.24,29.65,4,"Now",1.969,394.266,398.009
"721","112",1,18.56,23.2,1,"Later",3.884,0.044,5.709
"722","112",2,21.33,23.46,3,"Now",1.438,8.786,11.994
"723","112",3,25.47,26.74,2,"Now",1.274,14.368,17.409
"724","112",4,24.55,28.23,4,"Now",1.479,20.987,24.229
"725","112",5,19.69,26.58,2,"Later",0.637,26.286,28.691
"726","112",6,27.28,31.37,2,"Later",0.802,30.865,33.438
"727","112",7,18.63,25.15,4,"Now",1.437,35.077,38.285
"728","112",8,12.9,14.83,3,"Now",0.337,39.473,41.578
"729","112",9,15.87,19.83,6,"Now",0.199,44.604,46.575
"730","112",10,19.77,21.75,6,"Now",0.655,48.348,50.77
"731","112",11,15.57,23.35,1,"Later",0.932,52.711,55.417
"732","112",12,27.62,29,3,"Now",0.626,57.608,59.997
"733","112",13,16.14,18.56,5,"Now",0.09,63.976,65.83
"734","112",14,27.81,37.54,5,"Now",0.272,69.475,71.53
"735","112",15,14.28,19.28,6,"Now",0.301,73.453,75.525
"736","112",16,17.78,18.67,6,"Now",1.186,79.136,82.093
"737","112",17,21.66,32.49,3,"Later",1.792,83.298,86.857
"738","112",18,24.44,30.54,3,"Now",1.48,89.499,92.741
"739","112",19,22.93,28.66,4,"Now",0.441,94.898,97.103
"740","112",20,22.92,24.06,1,"Later",1.12,100.915,103.805
"741","112",21,15.73,17.3,4,"Now",1.284,106.43,109.488
"742","112",22,24.76,25.99,5,"Now",1.378,112.08,115.221
"743","112",23,7.34,9.17,2,"Later",0.963,118.632,121.355
"744","112",24,23.1,26.57,1,"Later",0.738,124.248,126.753
"745","112",25,9.87,10.85,2,"Now",0.965,127.959,130.698
"746","112",26,21.51,23.66,1,"Later",0.383,132.939,135.094
"747","112",27,23.36,25.69,5,"Now",0.285,136.734,138.788
"748","112",28,12.21,16.48,1,"Later",0.29,141.113,143.168
"749","112",29,16.04,18.45,6,"Now",1.238,144.573,147.58
"750","112",30,17.13,17.98,4,"Now",1.172,150.038,152.979
"751","112",31,11.39,14.23,5,"Later",3.272,154.635,159.681
"752","112",32,15.21,22.82,4,"Later",2.034,162.457,166.267
"753","112",33,18.49,27.73,5,"Later",1.15,169.276,172.2
"754","112",34,16.54,22.32,3,"Later",0.71,173.772,176.245
"755","112",35,29.62,44.42,6,"Later",0.955,177.767,180.49
"756","112",36,14.91,22.36,2,"Later",0.288,182.898,184.953
"757","112",37,35.51,53.27,1,"Later",2.826,214.305,218.9
"758","112",38,17.68,26.53,4,"Later",1.722,221.625,225.117
"759","112",39,19.48,22.41,1,"Later",0.062,226.941,228.778
"760","112",40,9.36,11.7,2,"Now",1.89,231.704,235.363
"761","112",41,20.18,22.2,1,"Later",0.267,238.975,241.012
"762","112",42,12.57,18.86,2,"Later",0.582,243.972,246.327
"763","112",43,21.62,22.7,1,"Later",0.213,249.622,251.61
"764","112",44,27.36,30.1,6,"Now",1.568,255.171,258.513
"765","112",45,15.67,21.15,2,"Later",1.303,261.924,264.997
"766","112",46,20.3,21.32,3,"Now",2.347,266.503,270.614
"767","112",47,13.52,14.87,2,"Now",2.66,271.902,276.33
"768","112",48,28.82,36.03,4,"Later",1.679,277.652,281.094
"769","112",49,16.12,16.93,4,"Now",0.986,282.265,285.022
"770","112",50,19.59,26.44,3,"Now",0.985,289.017,291.774
"771","112",51,18.1,19.9,4,"Now",0.202,294.6,296.571
"772","112",52,25.71,26.99,2,"Now",0.181,298.662,300.616
"773","112",53,17.96,22.45,1,"Later",0.735,303.475,305.981
"774","112",54,16.59,19.08,6,"Now",0.282,309.593,311.647
"775","112",55,17.26,19.85,5,"Now",0.86,314.808,317.43
"776","112",56,17.74,19.52,5,"Now",0.28,318.635,320.69
"777","112",57,14.31,17.89,3,"Now",0.678,321.844,324.284
"778","112",58,29.64,37.05,5,"Now",0.588,326.574,328.93
"779","112",59,25.09,33.87,6,"Later",1.214,331.572,334.546
"780","112",60,18.98,20.88,3,"Now",1.109,337.021,339.894
"781","112",61,23.31,26.8,3,"Now",1.573,341.534,344.875
"782","112",62,18.12,20.84,4,"Now",1.376,347.267,350.408
"783","112",63,21.41,32.12,5,"Later",1.119,353.669,356.558
"784","112",64,19.84,24.8,6,NA,NA,359.869,366.153
"785","112",65,19.88,20.88,6,"Now",1.075,367.408,370.248
"786","112",66,14.74,16.95,2,"Now",0.239,374.244,376.248
"787","112",67,17.42,23.51,4,"Later",1.886,378.188,381.847
"788","112",68,11.56,17.35,6,"Now",0.447,383.035,385.257
"789","112",69,22.95,30.98,5,"Now",1.424,387.682,390.873
"790","112",70,15.66,23.49,3,"Later",0.779,393.231,395.771
"791","112",71,16.71,22.56,1,"Later",0.15,397.293,399.214
"792","112",72,20.36,21.37,5,"Now",1.761,400.585,404.111
"793","113",1,19.37,20.34,6,"Later",4.329,0.04,6.139
"794","113",2,25.19,31.48,5,"Later",1.078,7.595,10.451
"795","113",3,13.46,18.16,1,"Later",1.219,11.823,14.814
"796","113",4,16.31,20.39,2,"Later",1.975,18.108,21.851
"797","113",5,18.37,24.79,2,"Later",0.914,23.088,25.778
"798","113",6,15.15,15.91,1,"Now",2.824,26.883,31.478
"799","113",7,21.58,26.98,1,"Later",1.52,33.618,36.91
"800","113",8,18.65,19.58,5,"Now",4.202,38.064,44.031
"801","113",9,33.63,42.04,4,"Later",1.692,47.191,50.649
"802","113",10,18.71,20.59,3,"Later",2.251,52.288,56.298
"803","113",11,19.52,29.27,4,"Later",0.741,58.606,61.112
"804","113",12,19.46,29.19,5,"Later",1.333,64.574,67.681
"805","113",13,23.46,29.33,3,"Later",2.35,69.069,73.18
"806","113",14,9.44,11.8,6,NA,NA,77.143,83.443
"807","113",15,18.51,20.36,4,"Later",0.783,84.748,87.303
"808","113",16,16.63,22.45,5,"Later",0.891,88.592,91.248
"809","113",17,13.02,19.53,1,"Later",1.036,92.871,95.694
"810","113",18,22.45,30.31,3,"Later",0.821,97.166,99.772
"811","113",19,17.7,18.59,4,"Later",0.831,102.164,104.769
"812","113",20,30.36,34.92,3,"Later",0.798,106.309,108.898
"813","113",21,19.83,22.8,6,"Later",1.291,110.872,113.929
"814","113",22,21.62,23.78,6,"Later",1.194,115.385,118.342
"815","113",23,26.61,35.92,4,"Later",0.191,119.563,121.518
"816","113",24,21.93,32.9,2,"Later",0.451,124.895,127.117
"817","113",25,12.79,14.06,5,"Later",1.203,128.271,131.246
"818","113",26,8.7,9.14,2,"Later",1.087,132.684,135.541
"819","113",27,25.01,27.52,2,"Later",1.145,138.049,140.956
"820","113",28,17.99,20.68,5,"Later",1.723,143.247,146.74
"821","113",29,13.84,20.76,3,"Later",0.286,149.014,151.069
"822","113",30,17.43,26.15,6,"Later",0.543,152.708,155.013
"823","113",31,20.24,23.28,2,"Later",1.916,156.134,159.827
"824","113",32,23.35,26.86,1,"Later",1.138,163.305,166.212
"825","113",33,19.38,22.29,4,"Later",0.9,167.75,170.424
"826","113",34,27.95,29.35,3,"Later",0.899,171.511,174.184
"827","113",35,11.15,15.05,6,"Now",1.773,176.141,179.684
"828","113",36,14.52,15.97,1,"Later",2.298,182.961,187.021
"829","113",37,18.49,19.42,5,NA,NA,192.738,199.021
"830","113",38,19,20.9,2,"Later",1.682,202.984,206.443
"831","113",39,7.42,8.16,6,"Now",0.778,208.049,210.588
"832","113",40,18.55,23.18,5,"Later",1.79,211.692,215.251
"833","113",41,20.46,21.49,1,"Later",1.986,219.08,222.84
"834","113",42,21.07,28.44,3,"Later",0.646,224.613,227.035
"835","113",43,14.56,15.29,2,"Later",0.931,228.256,230.963
"836","113",44,17.95,20.64,2,"Later",3.741,234.557,240.072
"837","113",45,22.37,33.55,3,"Later",0.027,243.048,244.835
"838","113",46,23.82,26.2,3,"Later",2.726,245.957,250.452
"839","113",47,28.17,35.21,4,"Later",1.515,252.759,256.051
"840","113",48,19.16,21.07,5,"Later",0.536,257.339,259.645
"841","113",49,17.1,25.65,5,"Later",1.356,262.855,265.979
"842","113",50,25.13,33.92,6,"Later",1.163,268.12,271.044
"843","113",51,17.97,20.66,3,"Later",1.266,273.201,276.242
"844","113",52,16.94,21.18,2,"Later",0.435,278.967,281.172
"845","113",53,27.87,37.62,1,"Later",0.664,282.41,284.85
"846","113",54,20.21,23.24,1,"Later",0.695,286.94,289.396
"847","113",55,13.66,15.71,4,"Now",2.52,290.851,295.146
"848","113",56,11.34,13.04,5,"Now",1.646,296.701,300.11
"849","113",57,27.83,30.61,4,"Later",1.127,301.532,304.422
"850","113",58,10.4,10.92,6,"Now",1.6,307.315,310.69
"851","113",59,18.61,19.54,3,"Now",2.738,312.128,316.64
"852","113",60,18.52,25,4,"Later",0.934,319.901,322.607
"853","113",61,22.82,30.81,2,"Later",0.352,323.962,326.084
"854","113",62,28.62,38.63,5,"Later",0.247,328.692,330.714
"855","113",63,18.01,27.02,1,"Later",0.074,332.336,334.173
"856","113",64,20.63,25.79,1,"Later",1.807,335.411,338.986
"857","113",65,25.73,38.6,4,"Later",0.42,341.846,344.035
"858","113",66,17.55,18.43,4,"Later",0.682,345.089,347.545
"859","113",67,17.96,22.45,3,"Later",0.811,349.552,352.124
"860","113",68,27.9,30.69,1,"Later",2.697,353.53,357.991
"861","113",69,20.58,30.87,6,"Later",0.257,359.898,361.919
"862","113",70,13.13,16.41,6,"Later",2.451,363.391,367.619
"863","113",71,8.36,9.62,6,"Now",1.442,371.28,374.488
"864","113",72,24.53,36.8,2,"Later",0.491,375.76,378.015
"865","114",1,13.65,14.33,5,"Later",0.985,0.072,2.829
"866","114",2,17.25,21.57,2,"Later",1.69,6.774,10.233
"867","114",3,24.93,33.66,4,"Later",2.13,14.128,18.021
"868","114",4,27.51,30.26,3,"Later",0.892,20.446,23.103
"869","114",5,18.3,27.45,6,"Later",0.822,25.11,27.699
"870","114",6,14.17,21.25,2,"Later",0.94,30.742,33.449
"871","114",7,16.83,22.72,1,"Later",0.874,36.041,38.681
"872","114",8,20.56,23.65,4,"Later",2.644,39.919,44.33
"873","114",9,16.22,17.85,5,NA,NA,45.719,52.002
"874","114",10,7.58,7.96,3,"Now",1.533,53.374,56.682
"875","114",11,9.39,12.68,6,"Later",0.56,57.786,60.108
"876","114",12,16.28,21.98,5,"Later",0.295,61.179,63.234
"877","114",13,21.47,24.69,2,"Later",0.507,64.271,66.543
"878","114",14,16.18,17.8,6,"Later",1.441,68.066,71.29
"879","114",15,28.46,32.73,5,"Later",0.436,74.735,76.939
"880","114",16,10.61,12.2,3,"Later",2.518,78.612,82.907
"881","114",17,23.82,27.39,6,"Later",0.74,84.095,86.6
"882","114",18,20.14,30.2,5,"Later",0.138,88.273,90.194
"883","114",19,17.84,24.09,2,"Later",0.444,94.023,96.228
"884","114",20,24.88,27.36,1,"Later",0.796,97.767,100.323
"885","114",21,16.03,24.05,3,"Later",0.461,103.55,105.772
"886","114",22,19.34,24.17,3,"Later",1.105,107.963,110.836
"887","114",23,13.14,15.11,1,"Later",1.594,112.208,115.566
"888","114",24,23.23,24.39,1,"Now",1.513,118.626,121.901
"889","114",25,20.68,22.75,2,"Later",1.376,124.61,127.751
"890","114",26,21,28.35,3,"Later",1.256,131.162,134.186
"891","114",27,20.3,25.37,1,"Later",0.832,136.962,139.568
"892","114",28,30.28,37.86,4,"Later",0.999,141.508,144.281
"893","114",29,26.04,27.34,4,"Now",2.06,148.11,151.937
"894","114",30,9.27,9.73,2,"Now",1.866,153.409,157.035
"895","114",31,21.97,23.07,6,"Later",1.615,159.276,162.651
"896","114",32,14.47,21.7,1,"Later",1.022,163.972,166.763
"897","114",33,16.37,20.47,6,"Later",1.372,169.471,172.613
"898","114",34,17.91,22.39,5,"Later",1.183,176.491,179.449
"899","114",35,20.19,30.29,4,"Later",0.465,181.689,183.928
"900","114",36,17.66,19.43,4,"Later",1.187,185.584,188.541
"901","114",37,14.67,18.33,1,"Later",0.427,193.239,195.428
"902","114",38,21.29,31.94,3,"Later",0.675,198.688,201.127
"903","114",39,18.03,27.05,2,"Later",0.019,202.248,204.035
"904","114",40,7.22,9.75,2,"Later",0.188,207.63,209.584
"905","114",41,25.28,34.13,3,"Later",0.483,211.775,214.031
"906","114",42,17.65,18.53,4,"Now",2.375,216.923,221.067
"907","114",43,21.77,25.03,5,"Later",2.621,222.239,226.633
"908","114",44,10.57,14.28,1,"Later",0.995,227.687,230.444
"909","114",45,12.33,14.18,6,"Later",0.908,231.615,234.287
"910","114",46,18.93,23.67,5,"Later",0.091,235.56,237.414
"911","114",47,20.8,21.84,6,"Now",0.79,240.357,242.913
"912","114",48,21.07,28.44,4,"Later",0.524,244.703,246.991
"913","114",49,14,16.11,3,"Later",0.66,248.63,251.053
"914","114",50,17.83,26.74,1,"Later",0.583,253.795,256.167
"915","114",51,13.88,14.58,5,"Now",1.615,258.107,261.482
"916","114",52,19.96,24.95,4,"Later",0.38,263.055,265.21
"917","114",53,16,20,2,"Later",0.514,267.584,269.873
"918","114",54,20.53,27.72,5,"Later",0.51,273.668,275.94
"919","114",55,18.6,19.53,3,"Now",0.829,277.446,280.035
"920","114",56,27.78,30.56,5,"Later",2.835,282.911,287.507
"921","114",57,21.15,22.2,1,"Now",0.914,289.296,291.985
"922","114",58,17.02,18.72,1,"Now",3.235,293.024,298.019
"923","114",59,19.84,29.76,4,"Later",1.608,300.762,304.138
"924","114",60,21.1,23.2,6,"Now",2.631,308.1,312.495
"925","114",61,23.02,31.08,6,"Later",0.873,314.585,317.224
"926","114",62,15.53,17.08,2,"Later",1.64,318.931,322.339
"927","114",63,13.94,15.33,4,"Now",1.244,324.63,327.637
"928","114",64,14.89,22.34,6,"Later",0.291,331.583,333.638
"929","114",65,17.8,22.25,6,"Later",0.788,336.431,338.987
"930","114",66,23.82,27.39,2,"Later",0.25,342.264,344.285
"931","114",67,14.84,16.32,3,"Later",1.585,345.49,348.848
"932","114",68,14.13,17.66,3,"Later",0.852,351.223,353.846
"933","114",69,15.19,22.78,5,"Later",0.259,357.608,359.629
"934","114",70,18.49,19.41,2,"Now",1.852,363.04,366.666
"935","114",71,23.25,26.73,1,"Later",1.047,369.876,372.683
"936","114",72,21.01,24.17,4,"Later",3.286,375.709,380.756
"937","115",1,16.7,22.54,1,"Later",2.073,0.054,3.897
"938","115",2,14.91,16.4,5,"Now",0.945,5.669,8.392
"939","115",3,13.07,15.03,6,"Now",0.535,10.099,12.404
"940","115",4,15.08,15.83,6,"Now",0.51,14.043,16.315
"941","115",5,20.37,21.39,5,"Now",0.68,17.369,19.825
"942","115",6,12.37,13.6,6,"Now",0.795,21.999,24.555
"943","115",7,19.81,24.76,2,"Later",1.764,27.013,30.539
"944","115",8,23.72,24.91,4,"Now",1.099,33.766,36.64
"945","115",9,14.49,19.57,6,"Now",0.665,38.295,40.735
"946","115",10,8.63,12.95,1,"Later",0.914,44.279,46.969
"947","115",11,15.62,19.52,6,"Now",0.879,49.762,52.401
"948","115",12,22.09,33.13,5,"Now",1.45,55.311,58.535
"949","115",13,12.04,18.06,4,"Now",0.467,59.606,61.845
"950","115",14,12.39,13.63,1,"Later",0.882,63.735,66.408
"951","115",15,13.02,19.53,3,"Later",0.49,69.735,72.007
"952","115",16,26.37,27.69,3,"Now",0.572,75.485,77.823
"953","115",17,20.45,23.51,5,"Now",0.598,79.362,81.735
"954","115",18,14.02,16.12,1,"Later",0.849,83.625,86.265
"955","115",19,23.02,25.32,4,"Now",0.118,90.026,91.913
"956","115",20,22.67,34.01,2,"Later",0.799,93.001,95.574
"957","115",21,23.03,31.09,3,"Later",1.121,99.319,102.21
"958","115",22,21.65,22.73,1,"Later",1.062,105.019,107.843
"959","115",23,21.97,29.66,2,"Later",1.252,110.518,113.542
"960","115",24,20.62,25.77,3,"Now",0.814,115.332,117.921
"961","115",25,21.09,31.64,6,"Now",1.031,120.162,122.969
"962","115",26,14.17,14.87,2,"Now",1.107,126.23,129.103
"963","115",27,26.12,30.03,3,"Now",1.262,130.291,133.315
"964","115",28,19.88,22.86,2,"Now",0.756,134.837,137.36
"965","115",29,21.55,24.78,4,"Now",0.477,139.668,141.906
"966","115",30,24.07,30.09,4,"Now",0.902,143.595,146.269
"967","115",31,21.92,24.12,3,"Now",0.51,148.476,150.764
"968","115",32,19.73,26.64,5,"Now",0.299,154.51,156.581
"969","115",33,20.66,27.89,4,"Now",0.748,158.622,161.145
"970","115",34,21.98,27.47,1,"Now",0.092,162.332,164.187
"971","115",35,6.53,8.16,5,"Now",0.901,165.307,167.98
"972","115",36,15.23,16.75,2,"Now",0.491,169.854,172.109
"973","115",37,27.27,28.64,1,"Later",1.466,174.935,178.193
"974","115",38,14.98,17.22,5,"Now",0.695,180.049,182.505
"975","115",39,17.2,25.8,3,"Later",0.982,183.643,186.4
"976","115",40,27.17,29.89,5,"Now",1.061,188.373,191.197
"977","115",41,20.58,23.66,4,"Now",0.409,192.552,194.723
"978","115",42,18.37,24.8,2,"Later",0.807,197.85,200.423
"979","115",43,28.49,42.73,1,"Later",0.782,204.419,206.974
"980","115",44,16.26,17.07,5,"Now",0.401,208.48,210.652
"981","115",45,14.36,16.52,2,"Later",0.883,212.174,214.831
"982","115",46,25.02,37.53,4,"Later",0.816,216.921,219.51
"983","115",47,20.41,25.51,6,"Now",0.28,222.905,224.959
"984","115",48,11.78,14.73,1,"Later",0.469,226.732,228.971
"985","115",49,19.62,24.52,3,"Now",0.447,231.546,233.768
"986","115",50,19.01,25.67,5,"Now",0.65,234.839,237.261
"987","115",51,14.81,18.51,2,"Later",1.177,239.368,242.309
"988","115",52,11.32,13.02,6,"Now",0.117,245.436,247.323
"989","115",53,18.56,20.42,4,"Now",0.399,248.578,250.75
"990","115",54,19.93,20.93,3,"Now",0.187,253.726,255.681
"991","115",55,21.93,29.61,6,"Now",0.618,259.359,261.748
"992","115",56,28.18,30.99,2,"Now",1.318,262.835,265.926
"993","115",57,22.58,23.71,4,"Now",0.652,268.451,270.89
"994","115",58,21.27,26.59,5,"Now",0.447,272.713,274.934
"995","115",59,26.57,35.87,3,"Later",1.285,277.076,280.15
"996","115",60,16.66,22.48,1,"Later",1.265,282.608,285.649
"997","115",61,22.33,33.5,5,"Now",0.815,286.77,289.36
"998","115",62,14.17,15.59,1,"Later",0.789,291.684,294.24
"999","115",63,13.18,15.15,3,"Now",0.587,295.478,297.834
"1000","115",64,19.58,24.48,4,"Now",0.36,300.242,302.363
"1001","115",65,13.62,18.39,4,"Now",0.228,305.557,307.545
"1002","115",66,19.61,29.41,2,"Later",0.593,309.735,312.09
"1003","115",67,20.99,24.14,1,"Later",0.275,314.014,316.052
"1004","115",68,26.82,29.5,6,"Now",0.513,317.591,319.88
"1005","115",69,19.7,21.67,3,"Now",0.218,320.951,322.939
"1006","115",70,19.72,20.71,2,"Now",0.537,325.681,327.985
"1007","115",71,24.55,36.82,6,"Now",0.152,329.793,331.714
"1008","115",72,21.21,22.27,6,"Now",0.277,333.62,335.658
"1009","116",1,20,29.99,5,"Now",2.325,0.084,4.177
"1010","116",2,9.76,10.25,6,"Now",1.941,6.235,9.943
"1011","116",3,19.02,20.93,3,"Now",3.49,11.984,17.248
"1012","116",4,19.89,29.83,3,"Later",3.153,19.322,24.252
"1013","116",5,21.47,22.54,5,NA,NA,27.713,33.996
"1014","116",6,20.78,31.17,1,"Later",0.926,37.908,40.597
"1015","116",7,16.16,18.58,6,"Now",1.705,43.491,46.965
"1016","116",8,19.37,26.14,1,"Later",1.692,50.343,53.802
"1017","116",9,21.21,31.82,4,"Later",0.654,57.213,59.635
"1018","116",10,26.94,30.98,2,"Later",1.762,61.977,65.502
"1019","116",11,14.03,16.14,1,"Later",0.84,67.459,70.064
"1020","116",12,18.65,27.98,2,"Later",1.151,71.771,74.695
"1021","116",13,15.56,17.12,4,"Now",3.004,76.351,81.13
"1022","116",14,27.94,34.93,4,"Later",2.106,84.641,88.534
"1023","116",15,20.76,28.02,5,"Later",0.144,89.756,91.659
"1024","116",16,18.29,22.86,6,"Now",0.715,94.168,96.657
"1025","116",17,21.1,28.48,2,"Later",0.588,98.43,100.786
"1026","116",18,13.78,18.61,3,"Later",3.738,103.913,109.428
"1027","116",19,18.48,23.1,5,"Now",2.791,112.587,117.149
"1028","116",20,20.29,23.34,5,"Later",2.953,120.059,124.77
"1029","116",21,22.71,23.85,4,"Now",1.102,127.229,130.103
"1030","116",22,14.8,19.99,6,"Later",2.294,131.157,135.217
"1031","116",23,14.98,18.73,2,"Later",2.475,136.272,140.516
"1032","116",24,23.49,25.84,5,"Later",3.611,142.824,148.204
"1033","116",25,24.01,25.21,2,"Now",2.771,149.927,154.472
"1034","116",26,22.8,25.08,1,"Later",0.685,156.462,158.918
"1035","116",27,14.49,16.66,3,NA,NA,162.948,169.231
"1036","116",28,32.18,40.22,3,"Later",1.316,171.455,174.546
"1037","116",29,21.77,23.95,2,"Later",0.775,178.325,180.863
"1038","116",30,18.92,19.87,1,"Now",3.202,184.058,189.021
"1039","116",31,17.18,25.77,6,"Later",3.062,192.565,197.395
"1040","116",32,12.07,12.67,3,"Now",0.982,199.285,202.04
"1041","116",33,25.54,28.09,6,"Now",0.196,203.664,205.634
"1042","116",34,9.54,11.93,1,"Later",1.951,208.26,211.986
"1043","116",35,17.32,23.38,4,"Now",1.305,214.745,217.819
"1044","116",36,22.69,26.09,4,"Now",0.726,219.342,221.831
"1045","116",37,18.95,28.43,1,"Later",1.56,225.476,228.801
"1046","116",38,22.23,24.45,4,"Now",2.294,232.797,236.856
"1047","116",39,14.72,15.46,2,"Now",0.367,239.131,241.269
"1048","116",40,12.15,13.98,1,"Now",0.084,242.591,244.444
"1049","116",41,18.89,25.5,3,"Later",3.308,246.502,251.582
"1050","116",42,20.22,25.28,5,"Now",0.656,255.21,257.633
"1051","116",43,20.66,30.99,3,"Later",1.842,260.409,264.018
"1052","116",44,18.72,21.53,4,"Now",3.096,267.011,271.873
"1053","116",45,25.84,34.89,1,"Later",0.291,275.368,277.422
"1054","116",46,28.43,42.65,4,"Later",1.217,279.914,282.905
"1055","116",47,15.53,17.08,6,"Now",0.683,285.096,287.551
"1056","116",48,12.97,14.91,2,"Now",0.942,289.157,291.863
"1057","116",49,8.76,11.83,4,"Now",1.154,294.673,297.597
"1058","116",50,20.57,22.63,3,"Now",1.032,299.035,301.841
"1059","116",51,23.68,24.87,4,"Now",0.67,302.996,305.435
"1060","116",52,18.8,19.74,5,"Now",0.475,308.328,310.566
"1061","116",53,23.27,29.08,4,"Now",0.929,312.674,315.363
"1062","116",54,17.51,21.89,6,"Now",0.754,317.504,320.027
"1063","116",55,28.52,31.37,1,"Later",0.841,323.538,326.144
"1064","116",56,21.78,27.22,2,"Now",1.632,327.867,331.276
"1065","116",57,26.61,35.93,6,"Now",3.926,333.701,339.399
"1066","116",58,22.71,24.98,5,"Now",0.537,342.075,344.379
"1067","116",59,22.57,33.85,5,"Now",0.748,345.919,348.458
"1068","116",60,23.92,27.51,3,"Now",0.453,351.702,353.924
"1069","116",61,17.6,26.4,6,"Now",0.125,355.446,357.333
"1070","116",62,19.07,20.02,3,"Now",0.063,358.772,360.609
"1071","116",63,23.15,28.94,1,"Now",0.424,363.068,365.255
"1072","116",64,23.41,25.75,2,"Now",0.119,369.068,370.955
"1073","116",65,21.47,28.99,5,"Now",1.919,372.611,376.304
"1074","116",66,10.83,13.53,3,"Now",0.169,377.459,379.396
"1075","116",67,15.63,17.97,6,"Now",0.486,382.005,384.259
"1076","116",68,20.96,28.29,2,"Now",0.358,387.604,389.726
"1077","116",69,26.66,27.99,6,"Now",0.341,390.83,392.935
"1078","116",70,24.79,37.19,2,"Later",0.691,395.744,398.2
"1079","116",71,14.73,16.94,5,"Now",0.459,399.471,401.692
"1080","116",72,22.9,24.04,1,"Later",0.374,405.572,407.71
"1081","117",1,16.66,18.32,3,"Now",1.173,0.043,2.984
"1082","117",2,11.56,13.3,6,"Now",1.066,4.806,7.646
"1083","117",3,12.92,14.21,4,"Now",0.569,9.754,12.092
"1084","117",4,13.06,16.33,4,"Now",1.178,14.216,17.156
"1085","117",5,18.4,19.32,5,"Now",1.53,19.08,22.372
"1086","117",6,23.6,29.51,1,"Later",2.461,23.877,28.122
"1087","117",7,27.41,28.78,6,"Now",0.874,31.081,33.721
"1088","117",8,14.03,18.94,3,"Now",1.404,37.382,40.556
"1089","117",9,18.69,20.56,2,"Now",1.592,42.915,46.273
"1090","117",10,16.87,17.71,2,"Now",1.034,48.848,51.655
"1091","117",11,25.51,31.89,5,"Now",1.463,54.531,57.756
"1092","117",12,26.62,35.94,6,"Later",2.593,61.05,65.411
"1093","117",13,-0.36,-0.4,5,"Now",2.459,68.32,72.548
"1094","117",14,28.84,33.17,5,"Now",0.775,75.307,77.863
"1095","117",15,26.08,32.61,6,"Now",4.358,80.388,86.521
"1096","117",16,6.79,7.47,1,"Now",1.606,88.06,91.435
"1097","117",17,17.08,25.62,6,"Now",0.711,93.475,95.948
"1098","117",18,21.55,24.78,3,"Now",1.171,98.624,101.581
"1099","117",19,19.4,20.37,1,"Now",0.888,104.49,107.147
"1100","117",20,21.7,32.55,1,"Later",2.319,108.836,112.93
"1101","117",21,16.84,22.74,5,"Now",0.793,115.338,117.894
"1102","117",22,25.32,29.12,2,"Now",0.819,120.135,122.724
"1103","117",23,20.98,23.08,6,"Now",1.003,125.584,128.357
"1104","117",24,16.54,22.33,4,"Now",1.354,132.152,135.277
"1105","117",25,18.89,23.62,2,"Later",3.645,137.133,142.548
"1106","117",26,23.42,35.13,4,"Now",1.06,144.671,147.495
"1107","117",27,9.49,14.24,2,"Now",1.503,151.524,154.799
"1108","117",28,21.2,31.8,3,"Now",1.376,158.06,161.2
"1109","117",29,24.04,30.04,3,"Now",1.091,162.272,165.129
"1110","117",30,17.84,24.08,1,"Later",2.659,167.704,172.132
"1111","117",31,19.59,26.45,2,"Later",1.872,176.011,179.653
"1112","117",32,17.89,20.57,4,"Now",1.26,181.71,184.735
"1113","117",33,17.69,18.57,3,"Now",0.858,188.329,190.952
"1114","117",34,21,31.51,5,"Now",3.986,192.993,198.74
"1115","117",35,15.07,15.82,4,"Now",1.14,200.798,203.705
"1116","117",36,20.19,23.22,1,"Later",1.964,204.927,208.653
"1117","117",37,29.78,44.67,5,"Later",2.448,212.715,216.926
"1118","117",38,19.88,22.86,3,"Now",0.695,220.404,222.86
"1119","117",39,19.02,21.88,4,"Now",0.563,224.031,226.369
"1120","117",40,18.86,25.46,6,"Now",1.686,227.725,231.184
"1121","117",41,21.09,22.15,3,"Now",2.42,232.806,237
"1122","117",42,21.94,25.24,6,"Now",0.915,239.007,241.697
"1123","117",43,17.15,18.87,3,"Now",0.688,244.907,247.363
"1124","117",44,24.67,33.3,4,"Later",2.771,248.568,253.113
"1125","117",45,22.49,23.61,2,"Now",0.814,255.237,257.826
"1126","117",46,17.41,18.28,6,"Now",0.684,259.583,262.038
"1127","117",47,20.17,25.22,4,"Later",1.125,264.429,267.32
"1128","117",48,22.31,25.65,2,"Now",2.41,269.561,273.738
"1129","117",49,25.25,26.52,5,"Now",2.4,275.21,279.371
"1130","117",50,15.91,21.48,3,"Later",2.089,282.314,286.173
"1131","117",51,12.06,15.07,2,"Now",1.638,288.181,291.589
"1132","117",52,21.9,24.09,6,"Now",1.172,295.535,298.475
"1133","117",53,24.44,28.11,5,"Now",3.233,301.234,306.231
"1134","117",54,27.61,41.41,1,"Later",3.115,307.335,312.215
"1135","117",55,24.03,25.23,1,"Now",1.086,316.077,318.933
"1136","117",56,24.26,30.32,3,"Later",1.585,321.425,324.784
"1137","117",57,16.78,18.45,1,"Later",1.103,326.155,329.029
"1138","117",58,23.35,25.69,2,"Now",0.877,330.318,332.957
"1139","117",59,24.45,36.67,6,"Now",3.642,336.953,342.367
"1140","117",60,17.49,23.61,2,"Later",4.256,345.043,351.059
"1141","117",61,26,27.3,4,"Now",1.017,352.681,355.471
"1142","117",62,24.72,30.9,5,"Now",2.778,357.913,362.458
"1143","117",63,18.02,27.03,3,"Later",2.338,363.729,367.839
"1144","117",64,17.69,19.46,4,"Now",0.61,369.897,372.268
"1145","117",65,25.51,31.89,1,"Later",3.896,373.875,379.54
"1146","117",66,18.16,24.52,1,"Later",3.735,381.179,386.677
"1147","117",67,28.93,43.4,4,"Now",2.203,388.216,392.193
"1148","117",68,22.56,25.95,1,"Now",1.583,395.436,398.795
"1149","117",69,20.87,31.31,2,"Later",0.817,400.049,402.639
"1150","117",70,23.74,26.12,5,"Now",0.864,405.682,408.322
"1151","117",71,25.67,34.65,5,NA,NA,410.847,417.131
"1152","117",72,26.5,33.13,6,"Now",1.217,420.257,423.248
"1153","118",1,16.84,18.52,6,"Now",2.898,0.039,4.718
"1154","118",2,19.84,26.78,1,"Later",1.608,6.24,9.631
"1155","118",3,21.76,29.37,4,"Later",2.616,11.538,15.916
"1156","118",4,22.68,34.02,6,"Later",1.893,19.494,23.153
"1157","118",5,24.78,26.01,4,"Now",2.087,26.196,30.056
"1158","118",6,8.48,9.33,1,NA,NA,31.093,37.377
"1159","118",7,22.83,25.11,5,"Now",2.071,38.531,42.375
"1160","118",8,25.67,29.52,1,"Later",1.303,46.203,49.277
"1161","118",9,11.26,12.95,6,"Now",1.166,50.532,53.473
"1162","118",10,16.53,24.79,2,"Later",0.665,55.697,58.136
"1163","118",11,20.93,21.97,1,"Now",1.606,59.524,62.9
"1164","118",12,17.62,22.02,1,"Later",1.595,66.143,69.501
"1165","118",13,28.82,31.7,4,"Now",1.582,73.38,76.739
"1166","118",14,20.92,23.01,2,"Now",2.817,78.378,82.974
"1167","118",15,23.86,27.44,3,"Now",1.82,85.031,88.623
"1168","118",16,20.81,31.21,3,"Later",1.214,89.861,92.835
"1169","118",17,19.46,20.44,6,"Now",1.937,95.761,99.47
"1170","118",18,14.56,21.84,1,"Later",1.321,101.21,104.317
"1171","118",19,22.17,29.93,6,"Later",1.541,105.589,108.897
"1172","118",20,22.6,23.73,5,"Now",1.278,110.252,113.293
"1173","118",21,17.64,20.28,4,"Now",1.628,115.166,118.557
"1174","118",22,20.61,27.82,2,"Later",1.625,120.849,124.24
"1175","118",23,23.93,27.52,5,"Now",1.495,125.763,129.021
"1176","118",24,17.83,19.61,3,"Now",1.246,132.733,135.757
"1177","118",25,22.39,27.98,5,"Later",2.888,137.731,142.392
"1178","118",26,14,17.5,3,"Now",3.275,146.272,151.317
"1179","118",27,20.18,25.23,2,"Later",1.098,153.024,155.881
"1180","118",28,26.94,33.67,6,"Later",1.452,157.671,160.896
"1181","118",29,30.28,45.42,5,"Later",0.663,162.284,164.706
"1182","118",30,27.51,28.88,2,"Now",1.102,167.181,170.055
"1183","118",31,21.24,31.86,4,"Later",1.023,173.499,176.289
"1184","118",32,17.97,24.26,5,"Later",1,177.778,180.551
"1185","118",33,22.47,28.08,4,"Later",1.42,184.046,187.237
"1186","118",34,21.72,29.33,3,"Later",0.661,188.893,191.315
"1187","118",35,22.19,23.3,3,"Now",1.005,194.141,196.915
"1188","118",36,20.11,23.12,2,"Now",3.25,199.089,204.102
"1189","118",37,21.17,24.34,2,"Later",2.142,208.917,212.827
"1190","118",38,13.52,16.89,1,"Later",2.392,214.098,218.259
"1191","118",39,20.61,30.91,3,"Later",0.466,220.801,223.039
"1192","118",40,18,19.8,5,"Now",0.935,224.428,227.134
"1193","118",41,13.77,14.46,4,"Now",0.66,229.726,232.149
"1194","118",42,19.61,21.57,1,"Now",1.793,234.674,238.233
"1195","118",43,31.77,34.95,6,"Now",1.137,240.657,243.564
"1196","118",44,28.23,32.46,5,"Now",2.153,246.307,250.233
"1197","118",45,16.47,22.24,5,"Later",1.135,253.427,256.334
"1198","118",46,24.5,36.75,2,"Later",0.614,258.157,260.545
"1199","118",47,12.17,15.21,5,"Now",1.16,262.586,265.509
"1200","118",48,23.34,29.18,4,"Later",1.646,267.684,271.093
"1201","118",49,14.04,14.75,1,"Now",1.065,273.601,276.458
"1202","118",50,13.48,15.5,1,"Now",1.135,278.148,281.055
"1203","118",51,24.44,32.99,2,"Later",0.768,284.114,286.654
"1204","118",52,18.39,20.23,4,"Now",1.587,287.976,291.334
"1205","118",53,24.44,30.55,2,"Later",0.714,294.544,297.033
"1206","118",54,19.52,24.4,3,"Later",0.912,298.723,301.396
"1207","118",55,27.02,36.48,6,"Later",0.803,302.968,305.541
"1208","118",56,28.05,29.45,2,"Now",1.546,307.648,310.956
"1209","118",57,17.27,19,3,"Now",0.963,312.128,314.851
"1210","118",58,11.64,15.71,4,NA,NA,317.744,324.043
"1211","118",59,20.4,27.53,1,"Later",0.665,326.586,329.024
"1212","118",60,29.67,44.51,5,"Later",0.706,330.697,333.17
"1213","118",61,21.37,32.06,1,"Later",0.568,335.427,337.765
"1214","118",62,18.26,19.17,6,"Now",0.446,339.974,342.196
"1215","118",63,14.29,17.86,6,"Now",1.236,343.367,346.391
"1216","118",64,23.66,27.21,3,"Now",2.327,350.203,354.296
"1217","118",65,20.74,31.11,4,"Later",0.496,355.802,358.073
"1218","118",66,15.44,16.22,3,"Now",1.29,359.496,362.553
"1219","118",67,12.8,13.44,5,"Now",0.984,366.499,369.256
"1220","118",68,22.02,24.23,2,"Now",1.819,371.279,374.872
"1221","118",69,17.49,20.11,6,"Now",4.35,376.461,382.577
"1222","118",70,23.99,35.98,6,"Later",0.552,385.754,388.076
"1223","118",71,25.31,34.17,3,"Later",1.231,390.467,393.457
"1224","118",72,18.1,20.82,4,"Now",2.36,396.802,400.93
"1225","119",1,32.91,34.55,3,"Now",2.193,0.047,4.007
"1226","119",2,22.63,23.77,2,"Now",1.274,6.783,9.824
"1227","119",3,20.96,23.06,5,"Now",2.075,12.031,15.874
"1228","119",4,26.01,27.31,1,"Now",0.839,18.316,20.922
"1229","119",5,17.27,23.32,2,"Later",3.546,24.233,29.547
"1230","119",6,18.46,24.93,4,"Later",0.244,31.503,33.508
"1231","119",7,22.32,33.48,4,"Later",0.089,36.233,38.086
"1232","119",8,15.88,21.44,3,"Later",1.687,41.147,44.605
"1233","119",9,28.6,31.46,6,"Now",1.529,48.218,51.509
"1234","119",10,19.56,21.51,2,"Now",1.298,53.249,56.323
"1235","119",11,15.37,20.75,5,"Later",0.687,59.132,61.587
"1236","119",12,26.6,30.58,6,"Later",0.993,65.634,68.39
"1237","119",13,27.3,34.12,2,"Later",0.49,72.336,74.591
"1238","119",14,22.64,28.3,1,"Later",1.051,76.448,79.287
"1239","119",15,19.38,20.34,6,"Now",1.638,80.844,84.252
"1240","119",16,20.52,21.55,4,"Now",0.352,87.914,90.035
"1241","119",17,19.45,24.32,3,"Now",0.712,92.059,94.532
"1242","119",18,15.01,22.52,6,"Now",0.653,97.926,100.364
"1243","119",19,23.56,25.92,3,"Now",3.037,101.837,106.649
"1244","119",20,18.57,27.86,3,"Later",0.254,110.645,112.667
"1245","119",21,16.67,25,5,"Later",0.193,115.258,117.213
"1246","119",22,21.12,26.4,4,"Later",0.254,120.741,122.761
"1247","119",23,21.66,24.91,1,"Later",1.56,124.067,127.391
"1248","119",24,23.13,34.69,1,"Later",0.039,128.596,130.399
"1249","119",25,16.63,22.45,6,"Now",0.44,131.755,133.96
"1250","119",26,23.33,29.16,5,"Later",0.05,135.834,137.654
"1251","119",27,17.63,23.8,1,"Later",0.656,139.979,142.4
"1252","119",28,21.63,24.88,4,"Later",1.133,145.478,148.384
"1253","119",29,18.21,20.95,2,"Later",0.64,150.659,153.064
"1254","119",30,18.24,20.07,1,"Later",0.131,156.008,157.912
"1255","119",31,16.57,17.39,5,"Now",0.398,160.237,162.408
"1256","119",32,23.46,26.98,3,"Now",1.113,163.73,166.603
"1257","119",33,17.46,19.21,4,"Now",0.236,170.031,172.036
"1258","119",34,15.53,17.85,5,"Now",0.309,173.541,175.613
"1259","119",35,16.92,25.38,2,"Now",0.819,179.207,181.796
"1260","119",36,8.03,10.04,6,"Now",0.112,185.074,186.961
"1261","119",37,20.89,22.97,6,"Now",0.424,191.643,193.83
"1262","119",38,19.52,24.4,6,"Now",3.936,197.643,203.357
"1263","119",39,20.06,27.08,3,"Later",0.469,206.134,208.389
"1264","119",40,23.8,24.99,4,"Now",1.601,210.346,213.721
"1265","119",41,27.65,31.79,1,"Later",0.348,215.878,217.999
"1266","119",42,17.25,18.11,5,"Now",0.077,220.358,222.194
"1267","119",43,19.87,20.86,1,"Later",0.008,225.522,227.292
"1268","119",44,25.49,29.31,6,"Now",0.08,230.019,231.873
"1269","119",45,26.04,29.95,5,"Now",0.606,233.98,236.351
"1270","119",46,23.93,32.3,6,"Later",0.196,237.607,239.578
"1271","119",47,23.97,29.96,5,"Now",1.357,242.086,245.21
"1272","119",48,18.91,19.86,6,"Now",0.186,246.633,248.586
"1273","119",49,22.77,34.15,6,"Later",0.027,250.36,252.147
"1274","119",50,28.19,31.01,2,"Later",0.608,253.218,255.589
"1275","119",51,21.81,25.08,2,"Later",1.394,257.129,260.286
"1276","119",52,20.22,22.24,5,"Now",0.23,263.013,265.017
"1277","119",53,22.82,28.53,2,"Later",0.052,266.255,268.075
"1278","119",54,25.14,37.72,4,"Later",0.493,271.821,274.076
"1279","119",55,21.6,32.41,2,"Later",0.193,275.498,277.453
"1280","119",56,24.05,26.45,3,"Now",2.31,278.741,282.818
"1281","119",57,20.99,28.33,5,"Later",2.011,284.975,288.751
"1282","119",58,16.92,25.38,5,"Later",1.354,289.889,293.014
"1283","119",59,15.04,15.79,3,"Now",0.417,296.658,298.847
"1284","119",60,23.53,31.77,2,"Later",0.062,301.021,302.857
"1285","119",61,17.35,21.69,4,"Later",2.112,304.146,308.023
"1286","119",62,25.06,28.82,3,"Later",0.182,310.381,312.335
"1287","119",63,25.36,27.9,1,"Now",0.246,314.894,316.915
"1288","119",64,24.04,36.05,3,"Later",1.154,318.721,321.645
"1289","119",65,19.23,24.04,3,"Later",2.081,322.85,326.692
"1290","119",66,24.22,32.69,4,"Later",0.924,330.455,333.145
"1291","119",67,7.35,11.02,1,"Later",1.443,336.305,339.513
"1292","119",68,20.61,27.82,1,"Later",0.435,341.135,343.34
"1293","119",69,21.14,23.25,4,"Later",2.579,346.016,350.359
"1294","119",70,18.45,19.37,2,"Now",0.295,352.501,354.556
"1295","119",71,21.69,24.95,4,"Now",1.214,356.262,359.235
"1296","119",72,16.36,20.45,1,"Later",0.369,360.306,362.445
"1297","120",1,21.35,26.69,4,"Now",1.016,0.041,2.831
"1298","120",2,26.7,40.05,1,"Later",3.764,4.236,9.768
"1299","120",3,17.23,18.09,6,"Now",1.196,11.407,14.364
"1300","120",4,25.12,28.88,1,"Now",4.314,16.337,22.42
"1301","120",5,21.35,24.55,4,"Now",0.378,25.313,27.451
"1302","120",6,29.96,37.45,5,"Now",2.295,29.876,33.936
"1303","120",7,22.31,23.43,1,NA,NA,37.264,43.547
"1304","120",8,21.94,32.9,4,"Now",1.048,47.443,50.266
"1305","120",9,22.61,23.74,4,"Now",3.342,51.604,56.717
"1306","120",10,30.96,34.05,2,"Now",0.685,59.861,62.317
"1307","120",11,17.2,23.22,4,"Now",2.548,64.19,68.501
"1308","120",12,22.28,30.08,2,"Now",0.639,69.74,72.145
"1309","120",13,12.21,12.82,2,"Now",1.601,74.185,77.561
"1310","120",14,5.75,6.32,4,"Now",0.184,78.882,80.854
"1311","120",15,14.84,17.07,6,"Now",0.706,83.128,85.6
"1312","120",16,17.8,20.47,2,"Now",0.598,88.693,91.066
"1313","120",17,17.31,23.37,6,"Now",1.409,94.209,97.384
"1314","120",18,19.51,26.34,1,"Now",2.311,100.628,104.722
"1315","120",19,13.92,17.4,3,"Now",1.218,106.561,109.552
"1316","120",20,26.24,28.87,3,NA,NA,113.481,119.764
"1317","120",21,13.24,19.86,6,"Now",0.796,122.055,124.611
"1318","120",22,24.93,37.39,2,NA,NA,127.186,133.469
"1319","120",23,19.03,23.79,6,"Now",0.975,135.644,138.384
"1320","120",24,19.06,20.97,6,"Now",0.244,141.895,143.9
"1321","120",25,22.05,27.57,1,"Now",1.13,144.937,147.827
"1322","120",26,23.91,35.86,5,"Later",0.785,149.45,152.006
"1323","120",27,23.31,25.64,1,"Now",0.398,153.244,155.416
"1324","120",28,21.36,22.43,5,"Now",1.924,158.726,162.419
"1325","120",29,13.86,15.94,3,"Now",3.739,163.808,169.322
"1326","120",30,17.03,22.99,3,"Now",0.244,171.078,173.083
"1327","120",31,12.78,14.69,5,"Now",0.214,176.293,178.281
"1328","120",32,20.31,22.34,5,"Now",3.522,181.625,186.922
"1329","120",33,17.44,23.54,5,"Now",0.762,190.233,192.755
"1330","120",34,15.3,16.07,3,"Now",3.202,194.729,199.691
"1331","120",35,20.41,30.62,3,"Later",0.491,201.431,203.687
"1332","120",36,21.34,26.68,2,"Now",0.452,205.727,207.949
"1333","120",37,23.69,31.98,2,NA,NA,236.598,242.882
"1334","120",38,20.61,30.92,5,"Later",1.04,245.323,248.13
"1335","120",39,18.59,25.1,3,"Now",2.203,249.919,253.896
"1336","120",40,13.57,14.25,2,"Now",0.087,255.469,257.323
"1337","120",41,11.38,15.37,4,"Now",1.636,259.079,262.487
"1338","120",42,26.08,35.21,5,"Later",0.881,264.009,266.666
"1339","120",43,11.68,17.51,4,"Now",0.458,269.793,272.015
"1340","120",44,12.87,19.3,3,"Now",0.335,274.924,277.045
"1341","120",45,19.14,23.92,3,"Now",0.674,278.217,280.656
"1342","120",46,22.77,26.18,3,"Now",0.38,284.184,286.339
"1343","120",47,15.72,17.29,5,"Now",0.083,290.368,292.222
"1344","120",48,25.44,29.25,4,"Now",0.279,293.644,295.699
"1345","120",49,12.51,13.14,1,"Now",0.311,297.572,299.643
"1346","120",50,23.98,29.98,6,"Now",0.95,303.021,305.744
"1347","120",51,19.84,20.84,6,NA,NA,307.216,313.499
"1348","120",52,18.9,19.84,3,"Now",0.598,315.172,317.544
"1349","120",53,16.89,17.73,4,"Now",0.295,320.771,322.843
"1350","120",54,12.44,13.06,5,"Now",0.362,324.833,326.954
"1351","120",55,20.62,22.68,6,"Now",0.184,328.242,330.196
"1352","120",56,15.72,19.65,1,"Now",0.219,333.407,335.395
"1353","120",57,21.67,29.25,1,"Now",0.715,338.305,340.811
"1354","120",58,21.15,24.32,6,"Now",3.31,342.517,347.596
"1355","120",59,18.08,19.89,3,"Now",3.683,351.208,356.656
"1356","120",60,20.23,30.35,1,"Later",0.953,360.601,363.325
"1357","120",61,23.04,26.49,5,"Now",0.849,364.529,367.152
"1358","120",62,25.25,27.78,2,"Now",0.2,370.747,372.718
"1359","120",63,18.86,20.75,1,"Now",1.232,373.756,376.763
"1360","120",64,19.08,23.85,2,"Now",1.394,379.856,383.014
"1361","120",65,12.01,15.01,5,"Now",1.789,386.525,390.084
"1362","120",66,10.83,13.54,4,"Now",0.318,392.325,394.413
"1363","120",67,22.11,33.17,6,"Now",3.583,397.707,403.054
"1364","120",68,24.71,37.07,2,"Later",4.336,405.93,412.047
"1365","120",69,18.43,20.27,4,"Now",0.729,415.826,418.315
"1366","120",70,23.17,31.28,6,"Now",1.846,420.205,423.814
"1367","120",71,10.08,11.6,2,"Now",1.476,425.135,428.377
"1368","120",72,17.65,20.3,1,"Now",0.629,430.534,432.923
"1369","121",1,17.51,26.27,4,NA,NA,0.064,6.348
"1370","121",2,15.53,17.86,6,"Now",2.683,7.686,12.147
"1371","121",3,19.13,21.04,2,"Later",2.817,16.009,20.605
"1372","121",4,21.92,25.21,3,"Now",1.025,23.698,26.488
"1373","121",5,24.52,36.77,1,"Later",1.257,28.378,31.402
"1374","121",6,9.41,10.35,6,"Now",1.488,33.475,36.734
"1375","121",7,15.62,16.4,2,"Later",3.253,38.022,43.034
"1376","121",8,10.8,14.58,5,"Later",2.045,45.142,48.952
"1377","121",9,21.55,29.09,1,"Later",1.583,52.764,56.122
"1378","121",10,8.84,13.26,6,"Later",1.706,58.497,61.972
"1379","121",11,19.84,20.83,3,"Now",2.052,63.127,66.953
"1380","121",12,19,19.95,1,"Later",2.551,69.261,73.572
"1381","121",13,18.62,25.14,2,"Later",0.818,77.585,80.174
"1382","121",14,14.84,18.55,2,"Later",1.683,81.295,84.771
"1383","121",15,33.29,34.95,6,"Now",1.827,87.112,90.704
"1384","121",16,18.6,19.53,5,"Now",2.225,93.329,97.323
"1385","121",17,9.81,14.72,5,"Later",1.929,98.962,102.655
"1386","121",18,14.46,15.9,4,"Now",4.056,104.795,110.611
"1387","121",19,23.05,28.81,1,"Later",0.825,113.002,115.592
"1388","121",20,17.36,21.7,3,"Later",0.962,117.297,120.021
"1389","121",21,15.95,19.94,4,"Later",0.728,123.315,125.804
"1390","121",22,19.01,21.86,1,"Later",1.322,129.081,132.172
"1391","121",23,22.02,33.04,2,"Later",0.723,133.544,136.033
"1392","121",24,11.15,12.26,1,"Later",0.439,139.995,142.2
"1393","121",25,20.05,23.05,5,"Now",1.447,146.197,149.405
"1394","121",26,21.61,24.85,4,"Later",3.024,152.698,157.494
"1395","121",27,16.69,22.53,6,"Later",1.743,161.156,164.665
"1396","121",28,22.77,25.05,5,"Now",0.149,168.51,170.431
"1397","121",29,20.17,22.19,3,"Later",2.643,173.056,177.484
"1398","121",30,19.11,28.67,3,"Later",0.706,179.057,181.529
"1399","121",31,26.65,35.97,3,"Later",1.245,184.807,187.813
"1400","121",32,17.6,22,5,"Later",1.035,189.136,191.942
"1401","121",33,19.38,26.16,4,"Later",1.522,193.097,196.388
"1402","121",34,8.62,10.77,6,"Now",0.855,197.643,200.266
"1403","121",35,23.42,24.59,4,"Now",1.374,201.437,204.578
"1404","121",36,25.69,29.54,2,"Later",1.495,206.635,209.894
"1405","121",37,17.65,26.47,1,"Later",1.465,214.825,218.067
"1406","121",38,23.26,24.42,6,"Now",0.977,220.074,222.814
"1407","121",39,27.07,33.83,2,"Later",0.592,224.77,227.126
"1408","121",40,24.95,26.2,3,"Now",0.757,228.598,231.121
"1409","121",41,24.72,28.43,4,"Later",1.611,233.127,236.503
"1410","121",42,16.95,19.49,5,"Later",0.094,238.86,240.715
"1411","121",43,25.77,27.05,5,"Now",1.057,242.721,245.545
"1412","121",44,14.04,16.15,3,"Now",0.869,247.301,249.941
"1413","121",45,23.26,34.89,5,"Later",0.275,251.68,253.718
"1414","121",46,9.47,9.95,1,"Later",0.846,254.956,257.563
"1415","121",47,17.3,23.35,5,"Later",0.023,259.987,261.774
"1416","121",48,25.15,33.96,2,"Later",1.057,263.882,266.705
"1417","121",49,19.51,26.34,3,"Later",1.214,268.06,271.051
"1418","121",50,16.06,16.86,2,"Now",2.228,274.662,278.656
"1419","121",51,14.9,16.39,4,"Later",1.028,281.398,284.188
"1420","121",52,15.58,21.04,6,"Later",1.189,286.647,289.603
"1421","121",53,14.89,18.61,4,"Later",1.297,292.162,295.22
"1422","121",54,17.88,24.14,1,"Later",0.141,298.029,299.933
"1423","121",55,19.1,21.96,2,"Later",0.668,301.054,303.493
"1424","121",56,18.16,27.24,6,"Later",1.52,305.667,308.959
"1425","121",57,30.16,45.24,4,"Later",1.145,311.802,314.709
"1426","121",58,14.18,15.59,3,"Now",2.187,317.184,321.144
"1427","121",59,19.68,29.52,3,"Later",2.926,324.237,328.932
"1428","121",60,12.3,18.45,2,"Later",0.913,330.706,333.379
"1429","121",61,22.4,28,3,"Later",0.974,336.957,339.696
"1430","121",62,26.58,30.57,1,"Later",0.217,340.818,342.805
"1431","121",63,23.4,25.74,6,"Now",1.049,344.929,347.753
"1432","121",64,21.53,26.91,6,"Now",1.456,349.843,353.068
"1433","121",65,21.16,23.28,1,"Later",1.138,354.824,357.731
"1434","121",66,16.48,17.3,4,"Now",3.166,359.621,364.551
"1435","121",67,25.85,28.43,5,"Later",0.501,365.621,367.894
"1436","121",68,15.21,17.49,6,"Now",1.017,369.098,371.888
"1437","121",69,25.25,27.77,2,"Later",2.511,374.196,378.473
"1438","121",70,17.66,22.07,1,"Later",0.138,382.352,384.257
"1439","121",71,18.43,23.04,5,"Later",4.005,386.581,392.362
"1440","121",72,11.02,14.88,4,"Later",1.337,393.635,396.742
"1441","122",1,30.74,41.5,4,"Now",1.281,0.087,3.144
"1442","122",2,21.36,24.56,3,"Now",2.778,7.158,11.702
"1443","122",3,25.44,31.79,5,"Now",1.208,14.378,17.352
"1444","122",4,28.58,38.58,6,NA,NA,19.325,25.609
"1445","122",5,25.43,26.71,5,"Now",1.134,29.605,32.512
"1446","122",6,19.41,24.27,2,"Now",2.552,35.555,39.883
"1447","122",7,24.09,36.14,6,"Now",1.726,41.589,45.081
"1448","122",8,26.63,33.29,6,"Now",0.526,46.653,48.941
"1449","122",9,31.34,34.47,5,"Now",0.86,50.263,52.885
"1450","122",10,20.71,23.82,5,"Now",0.306,54.408,56.479
"1451","122",11,17.55,20.18,4,"Now",0.347,59.256,61.393
"1452","122",12,24.44,28.11,2,"Now",0.574,64.788,67.126
"1453","122",13,18.45,20.29,6,"Now",0.475,69.568,71.807
"1454","122",14,16.49,17.31,6,"Now",0.277,74.198,76.253
"1455","122",15,18.34,22.92,4,"Now",0.366,79.012,81.149
"1456","122",16,18.74,21.56,6,"Now",0.584,82.355,84.71
"1457","122",17,19.01,20.91,1,"Now",0.301,86.918,88.989
"1458","122",18,21.77,22.86,1,"Now",1.023,91.564,94.37
"1459","122",19,11.39,12.53,2,"Now",0.377,97.698,99.836
"1460","122",20,21.09,28.47,2,"Now",0.145,101.058,102.979
"1461","122",21,21.58,22.66,2,"Now",0.538,106.29,108.594
"1462","122",22,21.65,22.74,4,"Now",0.346,111.889,114.01
"1463","122",23,27.8,34.75,1,"Now",0.549,117.99,120.312
"1464","122",24,18.07,27.11,4,NA,NA,121.901,128.183
"1465","122",25,19.63,29.44,5,"Now",3.501,129.406,134.668
"1466","122",26,16.32,17.95,3,"Now",0.567,136.492,138.847
"1467","122",27,15.37,16.14,3,"Now",0.195,140.136,142.09
"1468","122",28,24.03,32.44,5,"Now",0.972,143.496,146.235
"1469","122",29,11.5,17.26,3,"Now",0.2,149.011,150.983
"1470","122",30,24.1,26.51,4,"Now",0.431,152.037,154.241
"1471","122",31,25.11,33.9,3,"Now",3.946,155.68,161.395
"1472","122",32,12.46,18.69,1,NA,NA,163.569,169.853
"1473","122",33,25.51,29.33,1,"Now",3.616,171.258,176.638
"1474","122",34,27.2,36.73,1,"Later",2.53,179.866,184.161
"1475","122",35,27.65,41.47,2,"Later",1.786,186.752,190.311
"1476","122",36,10.35,12.94,3,"Now",0.593,192.201,194.557
"1477","122",37,19.83,20.82,4,"Now",0.847,199.923,202.545
"1478","122",38,23.46,25.81,3,"Now",0.491,204.737,206.992
"1479","122",39,7.78,8.17,3,"Now",0.523,209.952,212.239
"1480","122",40,20.99,22.04,2,"Now",0.36,213.378,215.499
"1481","122",41,23.94,25.13,1,"Now",0.565,217.206,219.544
"1482","122",42,16.58,18.24,2,"Now",0.491,221.384,223.639
"1483","122",43,21.35,24.56,2,"Now",0.446,227.685,229.89
"1484","122",44,12.85,16.07,3,"Now",0.887,232.315,234.971
"1485","122",45,15.72,18.07,5,"Now",0.323,236.159,238.247
"1486","122",46,12.18,13.4,6,"Now",0.142,240.773,242.677
"1487","122",47,31.21,35.89,4,"Now",0.537,244.266,246.57
"1488","122",48,14.04,14.74,5,"Now",0.36,250.467,252.588
"1489","122",49,16.54,22.32,6,"Now",0.322,254.361,256.449
"1490","122",50,21,31.51,3,"Now",0.39,258.389,260.561
"1491","122",51,14.6,21.9,6,"Now",0.509,262.535,264.807
"1492","122",52,18.4,24.84,4,"Now",0.418,268.401,270.589
"1493","122",53,25.66,32.08,1,"Now",0.024,272.195,273.983
"1494","122",54,15.27,17.56,6,"Now",0.396,276.391,278.563
"1495","122",55,21.72,27.14,6,"Now",0.39,281.572,283.726
"1496","122",56,27.02,31.08,1,"Now",0.123,285.032,286.92
"1497","122",57,19.71,21.68,1,"Now",0.602,288.442,290.814
"1498","122",58,18.25,24.63,5,"Now",1.114,292.169,295.042
"1499","122",59,30.19,45.28,1,"Later",2.624,298.203,302.597
"1500","122",60,20.94,31.41,2,"Now",3.462,306.51,311.74
"1501","122",61,22.5,28.12,4,"Now",1.052,313.262,316.085
"1502","122",62,22.7,30.65,3,"Now",0.847,319.764,322.37
"1503","122",63,17.57,26.35,5,"Now",1.051,326.233,329.057
"1504","122",64,21.18,26.47,5,"Now",0.229,332.166,334.17
"1505","122",65,24.62,33.24,2,"Now",1.073,335.225,338.065
"1506","122",66,15.57,16.35,6,NA,NA,340.139,346.422
"1507","122",67,27.81,31.99,3,"Now",4.338,348.129,354.228
"1508","122",68,22.06,24.26,4,"Now",3.808,356.218,361.799
"1509","122",69,19.02,20.92,5,"Now",1.881,365.027,368.668
"1510","122",70,21.55,26.94,2,"Now",1.047,370.492,373.298
"1511","122",71,16.8,25.2,4,"Now",1.903,377.211,380.887
"1512","122",72,20.82,28.11,1,"Now",1.043,383.479,386.285
"1513","123",1,15.94,23.92,1,"Later",4.011,0.047,5.829
"1514","123",2,26.23,39.35,6,"Now",3.851,8.621,14.252
"1515","123",3,29.64,32.6,5,"Now",0.521,17.145,19.434
"1516","123",4,17.61,18.49,5,"Now",0.529,21.073,23.378
"1517","123",5,25.66,34.64,6,"Later",1.435,26.288,29.495
"1518","123",6,15.28,17.57,4,"Now",1.195,31.553,34.51
"1519","123",7,28.53,31.38,2,"Now",1.242,35.865,38.872
"1520","123",8,21.92,27.4,5,"Now",0.343,41.916,44.021
"1521","123",9,15.52,17.07,6,"Now",0.383,47.532,49.687
"1522","123",10,24.13,27.75,1,"Later",0.774,53.532,56.071
"1523","123",11,18.64,23.3,1,"Later",0.262,59.165,61.203
"1524","123",12,16.94,22.88,5,"Now",2.552,63.41,67.738
"1525","123",13,24.66,37,4,"Later",1.466,69.745,72.986
"1526","123",14,17.25,23.29,3,"Later",0.594,74.592,76.948
"1527","123",15,12.16,12.77,2,"Now",0.991,78.035,80.792
"1528","123",16,11.24,15.18,2,"Later",3.329,83.618,88.715
"1529","123",17,18.69,25.23,4,"Now",4.39,92.66,98.826
"1530","123",18,14.68,16.88,3,"Now",2.386,101.001,105.178
"1531","123",19,13.59,15.63,6,"Now",0.322,107.185,109.273
"1532","123",20,23.96,26.35,1,"Later",1.304,110.394,113.468
"1533","123",21,17.75,22.19,6,"Now",1.497,115.442,118.7
"1534","123",22,9.81,14.72,2,"Later",0.497,122.562,124.834
"1535","123",23,25.6,29.44,2,"Now",2.267,126.624,130.65
"1536","123",24,18.92,21.75,5,"Now",1.565,132.942,136.267
"1537","123",25,27.91,29.31,1,"Now",2.146,139.577,143.487
"1538","123",26,21.08,26.35,4,"Now",1.592,144.658,148.017
"1539","123",27,17.57,26.36,3,"Later",1.043,150.024,152.831
"1540","123",28,26.48,27.8,3,"Now",0.576,156.091,158.43
"1541","123",29,30.84,33.92,3,"Now",0.265,161.874,163.912
"1542","123",30,23.27,31.41,1,"Later",0.715,165.568,168.057
"1543","123",31,13.56,14.24,6,"Now",0.909,169.629,172.302
"1544","123",32,20.4,30.6,5,"Later",4.004,173.775,179.54
"1545","123",33,30.2,31.71,4,"Now",2.43,181.413,185.607
"1546","123",34,18.22,20.05,4,"Now",0.252,188.734,190.755
"1547","123",35,16.44,20.55,2,"Later",1.229,192.461,195.452
"1548","123",36,27.11,33.89,3,"Later",1.256,198.946,201.971
"1549","123",37,29.87,32.86,1,"Now",3.638,207.437,212.834
"1550","123",38,22.41,28.01,2,"Later",1.254,216.028,219.052
"1551","123",39,16.78,18.45,3,"Now",0.172,220.591,222.529
"1552","123",40,15.07,18.84,1,"Now",1.146,223.8,226.708
"1553","123",41,28.4,42.6,6,"Later",0.452,228.447,230.669
"1554","123",42,19.53,22.46,5,"Now",0.222,232.876,234.864
"1555","123",43,16.91,17.75,1,"Now",2.673,238.793,243.238
"1556","123",44,14.2,15.62,2,NA,NA,244.459,250.742
"1557","123",45,19.76,26.68,5,"Now",1.19,253.836,256.793
"1558","123",46,22.27,30.06,3,"Later",3.266,259.953,264.983
"1559","123",47,18.45,20.29,4,"Now",1.579,266.288,269.63
"1560","123",48,19.16,20.12,5,"Now",0.606,272.573,274.945
"1561","123",49,21.1,22.16,6,"Now",3.082,278.456,283.301
"1562","123",50,24.47,36.71,1,"Later",0.321,285.242,287.33
"1563","123",51,19.91,20.91,3,"Now",0.111,289.972,291.843
"1564","123",52,24.55,28.23,4,"Now",1.047,294.084,296.891
"1565","123",53,17.23,23.25,2,"Later",1.254,298.396,301.42
"1566","123",54,17.6,22.01,6,"Now",0.926,303.845,306.535
"1567","123",55,14.71,22.06,2,"Later",1.182,308.692,311.649
"1568","123",56,26.05,35.17,6,"Later",0.36,314.291,316.413
"1569","123",57,13.98,17.47,5,"Now",2.294,319.189,323.249
"1570","123",58,21.52,24.75,3,"Now",2.018,326.042,329.835
"1571","123",59,19.43,21.38,5,"Now",2.602,333.128,337.506
"1572","123",60,20.69,21.73,2,"Now",1.616,341.034,344.443
"1573","123",61,6.4,7.36,1,"Now",2.647,348.355,352.767
"1574","123",62,21.5,32.25,5,"Later",1.023,355.659,358.45
"1575","123",63,24.37,32.9,4,NA,NA,360.456,366.74
"1576","123",64,18.44,24.89,1,"Later",3.567,370.067,375.414
"1577","123",65,21.91,32.86,4,"Later",3.033,377.889,382.684
"1578","123",66,23.29,29.11,3,"Now",4.101,385.478,391.343
"1579","123",67,9.11,10.48,6,NA,NA,394.319,400.619
"1580","123",68,18.31,22.89,4,"Now",1.607,402.292,405.666
"1581","123",69,13.17,13.83,4,NA,NA,407.039,413.322
"1582","123",70,12.79,19.19,3,"Later",1.442,417.001,420.209
"1583","123",71,13.64,15,6,"Now",0.213,423.503,425.491
"1584","123",72,21.92,25.21,2,"Later",0.816,428.283,430.955
"1585","124",1,17.21,25.82,5,NA,NA,0.049,6.331
"1586","124",2,22.61,26,5,"Now",1.294,8.322,11.396
"1587","124",3,22.14,24.36,3,"Now",1.283,13.503,16.561
"1588","124",4,12,12.6,5,"Now",0.611,18,20.372
"1589","124",5,16.36,24.53,1,"Later",1.502,23.198,26.473
"1590","124",6,11.2,11.76,3,"Now",0.939,28.663,31.37
"1591","124",7,16.17,20.21,3,"Later",0.721,33.794,36.283
"1592","124",8,24.47,28.14,2,"Later",1.371,39.527,42.669
"1593","124",9,30.35,34.9,6,"Later",1.575,46.163,49.505
"1594","124",10,18.99,28.48,4,"Later",2.083,51.144,54.987
"1595","124",11,25.03,31.29,6,"Later",1.365,56.342,59.483
"1596","124",12,27.15,29.87,2,"Later",0.993,61.875,64.63
"1597","124",13,18.59,23.24,4,"Later",0.907,66.504,69.177
"1598","124",14,10.57,14.27,6,"Now",0.561,73.073,75.412
"1599","124",15,10.48,11,6,"Now",1.156,77.87,80.793
"1600","124",16,15.9,21.47,1,"Later",0.74,82.751,85.257
"1601","124",17,18.47,23.08,5,"Later",1.517,87.247,90.537
"1602","124",18,26.5,30.48,1,"Later",0.791,92.061,94.632
"1603","124",19,29.52,30.99,1,"Later",0.304,95.771,97.841
"1604","124",20,20.13,22.15,1,"Later",0.391,100.652,102.807
"1605","124",21,12.94,19.41,3,"Later",0.63,106.134,108.523
"1606","124",22,14.38,15.1,2,"Later",0.516,112.335,114.624
"1607","124",23,24.84,31.05,2,"Later",0.473,116.146,118.384
"1608","124",24,21.78,25.05,4,"Later",1.68,120.658,124.1
"1609","124",25,17.77,20.44,3,"Later",0.813,125.238,127.811
"1610","124",26,27.2,28.56,4,"Now",1.255,130.236,133.26
"1611","124",27,16.8,22.68,5,"Later",0.923,136.871,139.561
"1612","124",28,18.12,24.47,2,"Later",0.714,141.401,143.907
"1613","124",29,16.97,22.92,4,"Later",1.308,145.463,148.536
"1614","124",30,25.24,27.76,5,"Later",0.197,149.775,151.745
"1615","124",31,19.01,23.76,1,"Later",0.541,153.87,156.174
"1616","124",32,21.74,32.61,2,"Later",0.469,159.486,161.724
"1617","124",33,28.07,30.88,4,"Now",1.329,164.45,167.541
"1618","124",34,16.09,24.14,6,"Now",0.516,170.35,172.638
"1619","124",35,28.95,39.09,3,"Later",0.756,175.632,178.155
"1620","124",36,20.54,22.6,6,"Now",1.448,179.827,183.034
"1621","124",37,13.61,18.38,6,"Now",1.337,191.978,195.086
"1622","124",38,18.38,20.22,6,"Now",0.626,196.809,199.197
"1623","124",39,21.94,24.14,4,"Now",0.677,201.99,204.428
"1624","124",40,20.77,25.97,1,"Later",0.256,205.467,207.488
"1625","124",41,20.07,25.09,3,"Later",0.33,209.913,212.018
"1626","124",42,17.14,23.15,3,"Later",0.326,213.573,215.661
"1627","124",43,15.93,18.32,3,"Later",0.592,217.25,219.605
"1628","124",44,20.07,25.09,5,"Later",0.24,222.499,224.503
"1629","124",45,25.06,26.32,4,"Now",1.244,226.543,229.551
"1630","124",46,22.75,25.02,3,"Now",1.308,232.728,235.802
"1631","124",47,24.46,36.69,6,"Later",0.247,237.508,239.528
"1632","124",48,26.31,35.52,1,"Later",0.482,241.92,244.175
"1633","124",49,21.45,24.67,6,"Now",1.034,246.049,248.856
"1634","124",50,19.97,29.95,4,"Later",0.72,251.698,254.187
"1635","124",51,18.45,20.29,1,"Later",0.749,255.526,258.049
"1636","124",52,10.16,15.25,3,"Later",0.816,259.554,262.143
"1637","124",53,28.15,42.22,1,"Later",0.495,263.549,265.804
"1638","124",54,19.96,24.95,6,"Now",1.662,268.613,272.038
"1639","124",55,23.42,29.27,4,"Later",1.124,273.159,276.05
"1640","124",56,26.02,29.92,4,"Now",1.009,279.21,281.983
"1641","124",57,25.39,29.2,1,"Later",0.48,284.274,286.529
"1642","124",58,20.78,22.85,5,"Now",0.704,287.651,290.124
"1643","124",59,17.46,23.58,4,"Now",0.768,292.699,295.237
"1644","124",60,25.63,28.19,2,"Later",0.633,296.442,298.848
"1645","124",61,9.89,10.39,1,"Later",0.359,301.908,304.029
"1646","124",62,18.73,25.29,5,"Now",0.702,306.989,309.461
"1647","124",63,16.72,17.56,2,"Later",0.338,310.817,312.921
"1648","124",64,16.92,17.77,3,"Now",0.563,314.745,317.067
"1649","124",65,23.7,24.89,6,"Now",0.849,319.074,321.696
"1650","124",66,18.47,19.39,5,"Now",0.731,323.135,325.64
"1651","124",67,20.84,26.05,2,"Later",0.397,329.303,331.474
"1652","124",68,20.28,30.42,2,"Later",0.33,334.618,336.706
"1653","124",69,12.51,14.38,5,"Now",1.865,338.178,341.803
"1654","124",70,18.6,21.39,2,"Later",0.415,345.699,347.887
"1655","124",71,20.8,31.19,5,"Now",0.096,349.443,351.314
"1656","124",72,20.85,28.15,2,"Later",0.4,353.739,355.927
"1657","125",1,30.17,33.19,5,"Now",1.953,0.04,3.766
"1658","125",2,21.78,25.04,3,"Now",1.058,5.038,7.861
"1659","125",3,26.73,36.08,2,"Later",1.591,10.804,14.163
"1660","125",4,24.43,32.98,1,"Later",1.402,17.256,20.43
"1661","125",5,24.82,33.51,4,"Now",3.701,22.069,27.534
"1662","125",6,17.62,19.38,4,"Now",0.695,28.571,31.027
"1663","125",7,27.15,29.87,3,"Now",1.009,34.689,37.462
"1664","125",8,19.12,25.81,6,"Later",1.645,40.054,43.462
"1665","125",9,23.46,24.63,1,"Now",0.363,45.887,48.026
"1666","125",10,18.18,19.09,2,"Now",0.487,51.236,53.49
"1667","125",11,24.75,37.12,6,"Later",0.372,56.902,59.04
"1668","125",12,25.52,38.28,2,"Later",0.107,60.863,62.734
"1669","125",13,19.61,26.48,5,"Later",0.57,64.825,67.163
"1670","125",14,20.14,25.17,3,"Now",1.305,70.842,73.933
"1671","125",15,14.4,21.6,5,"Later",0.525,77.294,79.582
"1672","125",16,20.12,23.14,5,"Now",0.316,81.255,83.359
"1673","125",17,14.34,17.92,5,"Now",0.487,87.155,89.41
"1674","125",18,23.37,35.06,3,"Later",0.235,91.935,93.957
"1675","125",19,24,27.6,1,"Now",0.649,97.601,100.024
"1676","125",20,17.04,17.89,4,"Now",1.123,102.432,105.322
"1677","125",21,17.8,19.58,2,"Now",0.765,106.677,109.216
"1678","125",22,21.35,22.42,3,"Now",0.204,110.822,112.793
"1679","125",23,23.43,24.61,5,"Now",1.048,114.466,117.29
"1680","125",24,15.02,17.27,2,"Now",0.186,120.985,122.939
"1681","125",25,18.56,21.34,6,"Now",1.206,126.317,129.29
"1682","125",26,22.25,27.82,1,"Later",0.809,132.986,135.558
"1683","125",27,24.79,37.19,4,"Later",0.117,138.133,140.021
"1684","125",28,24.63,30.79,2,"Later",0.106,143.85,145.721
"1685","125",29,22.67,34,1,"Later",0.114,149.616,151.504
"1686","125",30,15.26,19.07,6,"Now",0.846,153.845,156.451
"1687","125",31,10.1,11.62,4,"Now",0.725,157.973,160.463
"1688","125",32,20.44,25.55,4,"Later",1.655,162.052,165.477
"1689","125",33,19.76,21.74,1,"Later",1.23,168.804,171.794
"1690","125",34,25.53,34.47,3,"Later",0.123,175.239,177.127
"1691","125",35,23.74,24.92,6,"Now",0.755,181.039,183.562
"1692","125",36,18.36,20.2,6,"Now",0.656,184.867,187.289
"1693","125",37,13.95,20.93,3,"Later",1.731,191.168,194.66
"1694","125",38,17.3,18.17,3,"Now",0.506,197.553,199.825
"1695","125",39,20,22,6,"Now",0.543,200.996,203.301
"1696","125",40,28.19,42.29,1,"Later",0.127,204.924,206.811
"1697","125",41,11.25,16.87,6,"Later",0.347,209.136,211.257
"1698","125",42,11.44,17.16,4,"Later",0.189,214.334,216.288
"1699","125",43,15.1,22.65,2,"Later",0.058,219.432,221.252
"1700","125",44,20.3,21.32,5,"Now",0.228,224.279,226.267
"1701","125",45,14.41,18.01,3,"Now",0.379,228.223,230.378
"1702","125",46,21.98,23.08,6,"Now",0.479,234.124,236.379
"1703","125",47,19.71,20.7,1,"Now",0.453,239.422,241.644
"1704","125",48,27.3,34.13,2,"Later",0.415,242.732,244.92
"1705","125",49,16.85,18.54,3,"Now",2.492,245.991,250.252
"1706","125",50,16.81,19.33,3,"Now",1.293,252.325,255.383
"1707","125",51,17.62,22.02,5,"Now",0.733,259.262,261.768
"1708","125",52,7.68,8.45,5,"Now",0.051,264.377,266.197
"1709","125",53,18.16,19.07,4,"Now",0.17,268.488,270.426
"1710","125",54,19.53,20.51,2,"Now",0.093,274.422,276.276
"1711","125",55,17.51,21.89,6,"Now",1.727,279.252,282.761
"1712","125",56,22.42,24.67,4,"Now",0.123,284.384,286.27
"1713","125",57,16.08,18.5,6,"Now",0.261,289.013,291.034
"1714","125",58,14.81,20,4,"Later",1.475,292.991,296.233
"1715","125",59,23.23,31.36,1,"Later",0.133,297.638,299.542
"1716","125",60,10.27,11.81,5,"Now",0.325,303.421,305.509
"1717","125",61,20.94,24.08,2,"Now",1.069,308.87,311.71
"1718","125",62,30.67,46,5,"Later",1.867,314.519,318.161
"1719","125",63,15.92,17.51,2,"Now",0.489,321.138,323.393
"1720","125",64,22.15,29.9,6,"Now",1.43,324.548,327.739
"1721","125",65,21.21,28.63,5,"Now",0.757,329.83,332.351
"1722","125",66,15.24,19.05,4,"Now",0.508,335.278,337.55
"1723","125",67,20.79,25.99,1,"Now",0.432,341.162,343.366
"1724","125",68,19.6,22.55,1,"Later",1.816,344.722,348.314
"1725","125",69,23.89,32.25,3,"Later",0.087,349.619,351.473
"1726","125",70,17.58,20.22,4,"Now",1.321,353.313,356.404
"1727","125",71,18.18,20,1,"Now",0.194,358.729,360.683
"1728","125",72,18.51,24.99,2,"Later",0.055,364.612,366.433
"1729","126",1,15.41,16.18,3,"Now",3.586,0.039,5.403
"1730","126",2,27.82,37.56,5,"Later",2.757,7.995,12.524
"1731","126",3,22.41,24.66,3,"Later",4.149,13.862,19.777
"1732","126",4,18.66,23.33,2,"Later",0.99,21.684,24.441
"1733","126",5,23.17,26.64,5,NA,NA,26.147,32.43
"1734","126",6,19.16,25.87,2,"Later",0.496,35.306,37.578
"1735","126",7,24.75,27.23,6,"Later",3.227,39.568,44.565
"1736","126",8,11.58,13.32,1,"Later",0.986,47.257,50.014
"1737","126",9,19.99,26.99,4,"Later",0.863,51.051,53.691
"1738","126",10,27.37,41.06,4,"Later",0.791,55.547,58.103
"1739","126",11,28.3,29.71,6,"Now",1.382,60.06,63.218
"1740","126",12,15.2,16.72,4,"Now",1.675,64.439,67.88
"1741","126",13,21.17,22.22,2,"Now",2.146,70.072,73.981
"1742","126",14,24.2,27.83,6,"Later",3.481,76.473,81.737
"1743","126",15,16.19,21.86,1,"Later",0.621,85.366,87.754
"1744","126",16,21.33,22.4,5,"Now",1.599,90.179,93.554
"1745","126",17,19.47,22.39,4,"Later",1.535,96.915,100.223
"1746","126",18,19.36,24.19,4,"Later",0.037,103.902,105.723
"1747","126",19,13.93,16.01,2,"Later",0.197,107.645,109.617
"1748","126",20,23.22,34.83,3,"Now",1.5,113.095,116.369
"1749","126",21,21.46,23.6,2,"Now",3.983,117.524,123.272
"1750","126",22,21.19,31.79,1,"Later",1.362,124.744,127.869
"1751","126",23,25.25,34.09,6,"Later",0.791,130.444,133
"1752","126",24,14.22,14.94,1,"Now",0.733,135.909,138.415
"1753","126",25,19.71,21.68,5,"Later",0.337,139.937,142.042
"1754","126",26,25.67,38.51,5,"Later",1.168,143.331,146.271
"1755","126",27,16.98,19.53,3,"Later",3.834,149.465,155.063
"1756","126",28,18.38,22.97,6,"Later",1.704,156.234,159.709
